Frecuencia (Hz);50
time;timespan;canal;id;sample;gap;accX;accY;accZ;rawAccX;rawAccY;rawAccZ;rawGirX;rawGirY;rawGirZ
12:03:19.555;0;Mov;1;26;19;0;0;0;-0,014355907602589877;0,003588976900647469;-0,04306772280776963;-0,030518509475997192;-0,45777764213995786;-0,27466658528397475
12:03:19.556;0;Mov;2;26;1;-1,650929288613544;-0,9211706900234993;9,61486880855739;-1,650929288613544;-0,9211706900234993;9,61486880855739;-0,030518509475997192;-0,45777764213995786;-0,27466658528397475
12:03:19.559;0;Mov;1;27;20;0;0;0;-0,00598162785729545;0,010766930701942408;-0,05024567474636257;0;-0,45777764213995786;-0,24414807580797754
12:03:19.560;0;Mov;2;27;1;-1,6497329868846706;-0,9211706900234993;9,61486880855739;-1,6497329868846706;-0,9211706900234993;9,61486880855739;0;-0,45777764213995786;-0,24414807580797754
12:03:19.560;0;Mov2;1;26;21;0;0;0;0,027515489261180266;0,025122837373181287;-0,0945097216354297;-0,18311105685598317;0,15259254737998595;-0,8239997558519242
12:03:19.560;0;Mov2;2;26;1;-1,9476180780205694;0,5658619833788567;9,587353511154515;-1,9476180780205694;0,5658619833788567;9,587353511154515;-0,18311105685598317;0,15259254737998595;-0,8239997558519242
12:03:19.561;0;Mov2;1;27;19;0;0;0;0,04306772280776963;0,025122837373181287;-0,0837427900021363;-0,21362956633198035;0,21362956633198035;-0,8850367748039186
12:03:19.561;0;Mov2;2;27;1;-1,9476180780205694;0,5646656816499832;9,587353511154515;-1,9476180780205694;0,5646656816499832;9,587353511154515;-0,21362956633198035;0,21362956633198035;-0,8850367748039186
12:03:19.561;0;Mov;1;28;18;0;0;0;-0,010766930701942408;0,009570604757942918;-0,02990813928647725;-0,09155552842799158;-0,36622211371196634;-0,27466658528397475
12:03:19.561;0;Mov;2;28;1;-1,6497329868846706;-0,9211706900234993;9,61486880855739;-1,6497329868846706;-0,9211706900234993;9,61486880855739;-0,09155552842799158;-0,36622211371196634;-0,27466658528397475
12:03:19.562;0;Mov2;1;28;19;0;0;0;0,03947874311306917;0,031104465230476736;-0,09690236979802469;-0,24414807580797754;0,3051850947599719;-0,8545182653279214
12:03:19.562;0;Mov2;2;28;1;-1,948814379749443;0,5634693799211097;9,587353511154515;-1,948814379749443;0,5634693799211097;9,587353511154515;-0,24414807580797754;0,3051850947599719;-0,8545182653279214
12:03:19.562;0;Wrist;2;23;1;-8,460414632099369;0,49408247889454326;4,920487361522263;-8,460414632099369;0,49408247889454326;4,920487361522263;-0,5798516800439466;-0,5188146610919523;1,586962492751854
12:03:19.563;0;Wrist;1;24;19;0;0;0;0,01674855762788686;-0,08972441785943175;-0,05742363041035951;-0,5493331705679495;-1,3122959074678793;1,4954069643238623
12:03:19.563;0;Wrist;2;24;1;-8,456825846125675;0,4976714436876278;4,924076147495956;-8,456825846125675;0,4976714436876278;4,924076147495956;-0,5493331705679495;-1,3122959074678793;1,4954069643238623
12:03:19.564;0;Wrist;1;25;19;0;0;0;0,0119632557145909;-0,09690236979802469;-0,04904935066506508;-0,4272591326639607;-1,3733329264198737;1,4648884548478653
12:03:19.564;0;Wrist;2;25;1;-8,454433004242073;0,5000640769486069;4,928861354411451;-8,454433004242073;0,5000640769486069;4,928861354411451;-0,4272591326639607;-1,3733329264198737;1,4648884548478653
12:03:19.564;0;Wrist;2;26;2;-8,453237060151983;0,5036531013481551;4,931254196295053;-8,453237060151983;0,5036531013481551;4,931254196295053;-0,36622211371196634;-0,5188146610919523;1,403851435895871
12:03:19.564;0;Mov;1;29;19;0;0;0;-0,021533861403884816;0,01674855762788686;-0,04187139500106815;-0,09155552842799158;-0,36622211371196634;-0,27466658528397475
12:03:19.565;0;Mov;2;29;1;-1,648536685155797;-0,9211706900234993;9,61606475264748;-1,648536685155797;-0,9211706900234993;9,61606475264748;-0,09155552842799158;-0,36622211371196634;-0,27466658528397475
12:03:19.566;0;Mov;1;30;19;0;0;0;-0,013159581658590389;0;-0,052638326634361556;0;-0,3967406231879635;-0,18311105685598317
12:03:19.566;0;Mov;2;30;1;-1,6473403834269233;-0,9211706900234993;9,61606475264748;-1,6473403834269233;-0,9211706900234993;9,61606475264748;0;-0,3967406231879635;-0,18311105685598317
12:03:19.567;0;Mov2;1;29;19;0;0;0;0,02990813928647725;0,021533861403884816;-0,08972441785943175;-0,15259254737998595;0,27466658528397475;-0,793481246375927
12:03:19.567;0;Mov2;2;29;1;-1,9512071024201179;0,5622730185857723;9,586156613361004;-1,9512071024201179;0,5622730185857723;9,586156613361004;-0,15259254737998595;0,27466658528397475;-0,793481246375927
12:03:19.567;0;Mov2;1;30;18;0;0;0;0,056227302603658026;0,03947874311306917;-0,11365092928861355;-0,21362956633198035;0,15259254737998595;-0,793481246375927
12:03:19.567;0;Mov2;2;30;1;-1,9512071024201179;0,5610767168568987;9,586156613361004;-1,9512071024201179;0,5610767168568987;9,586156613361004;-0,21362956633198035;0,15259254737998595;-0,793481246375927
12:03:19.568;0;Wrist;1;31;19;0;0;0;0,05742363041035951;-0,10886562551261558;-0,0358897671437727;-0,24414807580797754;-1,3122959074678793;1,73955504013184
12:03:19.569;0;Wrist;2;31;1;-8,443665692617573;0,525186949713126;4,945609817041536;-8,443665692617573;0,525186949713126;4,945609817041536;-0,24414807580797754;-1,3122959074678793;1,73955504013184
12:03:19.569;0;Wrist;1;32;18;0;0;0;0,07656483806354335;-0,10408032918742562;-0,02990813928647725;-0,12207403790398877;-0,8239997558519242;1,8005920590838342
12:03:19.589;0;Mov2;1;31;19;0;0;0;0,0358897671437727;0,031104465230476736;-0,10527665326872311;-0,27466658528397475;0,3967406231879635;-0,8239997558519242
12:03:19.589;0;Mov2;2;31;1;-1,953599705877865;0,5598803555215613;9,586156613361004;-1,953599705877865;0,5598803555215613;9,586156613361004;-0,27466658528397475;0,3967406231879635;-0,8239997558519242
12:03:19.596;0;Wrist;2;32;1;-8,442469748527483;0,527579612777337;4,946806237983337;-8,442469748527483;0,527579612777337;4,946806237983337;-0,12207403790398877;-0,8239997558519242;1,8005920590838342
12:03:19.597;0;Wrist;1;33;19;0;0;0;0,06101260637965598;-0,09211707347283471;-0,009570604757942918;0,15259254737998595;0,45777764213995786;0,7019257179479355
12:03:19.597;0;Wrist;2;33;1;-8,442469748527483;0,5299722162350841;4,945609817041536;-8,442469748527483;0,5299722162350841;4,945609817041536;0,15259254737998595;0,45777764213995786;0,7019257179479355
12:03:19.611;0;Mov;1;31;19;0;0;0;-0,013159581658590389;-0,0011963255947428648;-0,05383465071565905;0;-0,21362956633198035;-0,09155552842799158
12:03:19.612;0;Mov;2;31;1;-1,6473403834269233;-0,9211706900234993;9,61606475264748;-1,6473403834269233;-0,9211706900234993;9,61606475264748;0;-0,21362956633198035;-0,09155552842799158
12:03:19.612;0;Mov;1;32;19;0;0;0;-0,0239265114291818;0,025122837373181287;-0,04426404688906713;0,061037018951994385;0,24414807580797754;0,061037018951994385
12:03:19.613;0;Mov;2;32;1;-1,6497329868846706;-0,9211706900234993;9,61486880855739;-1,6497329868846706;-0,9211706900234993;9,61486880855739;0,061037018951994385;0,24414807580797754;0,061037018951994385
12:03:19.613;0;Mov;1;33;18;0;0;0;-0,0239265114291818;0,021533861403884816;-0,0346934430624752;0,061037018951994385;0,21362956633198035;0
12:03:19.618;0;Mov2;1;32;19;0;0;0;0,01794488357188635;0,031104465230476736;-0,08254646592083881;-0,030518509475997192;0,18311105685598317;-0,030518509475997192
12:03:19.618;0;Mov2;2;32;1;-1,953599705877865;0,5598803555215613;9,586156613361004;-1,953599705877865;0,5598803555215613;9,586156613361004;-0,030518509475997192;0,18311105685598317;-0,030518509475997192
12:03:19.618;0;Mov2;1;33;19;0;0;0;0,05383465071565905;0,0358897671437727;-0,09690236979802469;0,09155552842799158;0,09155552842799158;0
12:03:19.618;0;Mov2;2;33;1;-1,953599705877865;0,5622730185857723;9,586156613361004;-1,953599705877865;0,5622730185857723;9,586156613361004;0,09155552842799158;0,09155552842799158;0
12:03:19.626;0;Wrist;1;34;19;0;0;0;0,040675070919770656;-0,10288399765532014;-0,009570604757942918;0,12207403790398877;0,793481246375927;0,7019257179479355
12:03:19.627;0;Wrist;2;34;1;-8,444862590411084;0,5311685775704215;4,943217452009644;-8,444862590411084;0,5311685775704215;4,943217452009644;0,12207403790398877;0,793481246375927;0,7019257179479355
12:03:19.627;0;Wrist;1;35;19;0;0;0;0,014355907602589877;-0,119632557145909;-0,0119632557145909;0,18311105685598317;0,9460737937559129;0,7324442274239327
12:03:19.627;0;Wrist;2;35;1;-8,446058534501175;0,5335612406346324;4,939628189184241;-8,446058534501175;0,5335612406346324;4,939628189184241;0,18311105685598317;0,9460737937559129;0,7324442274239327
12:03:19.648;0;Mov;1;34;19;0;0;0;-0,019141209515885837;0,01794488357188635;-0,0346934430624752;0,061037018951994385;0,21362956633198035;0,061037018951994385
12:03:19.648;0;Mov;2;34;1;-1,6533220112842189;-0,9187780865657521;9,61486880855739;-1,6533220112842189;-0,9187780865657521;9,61486880855739;0,061037018951994385;0,21362956633198035;0,061037018951994385
12:03:19.648;0;Mov2;1;34;19;0;0;0;0,02990813928647725;0,03349711525577372;-0,08135014183954131;0;0,18311105685598317;-0,030518509475997192
12:03:19.648;0;Mov2;2;34;1;-1,953599705877865;0,5622730185857723;9,586156613361004;-1,953599705877865;0,5622730185857723;9,586156613361004;0;0,18311105685598317;-0,030518509475997192
12:03:19.656;0;Wrist;1;36;19;0;0;0;0;-0,119632557145909;-0,010766930701942408;0,27466658528397475;0,7324442274239327;0,8239997558519242
12:03:19.656;0;Wrist;2;36;1;-8,447255432294687;0,5347575423635059;4,937235824152348;-8,447255432294687;0,5347575423635059;4,937235824152348;0,27466658528397475;0,7324442274239327;0,8239997558519242
12:03:19.680;0;Mov2;1;35;19;0;0;0;0,0358897671437727;0,026319163317180778;-0,07417218990094836;0;0,27466658528397475;-0,09155552842799158
12:03:19.681;0;Mov2;2;35;1;-1,953599705877865;0,5634693799211097;9,586156613361004;-1,953599705877865;0,5634693799211097;9,586156613361004;0;0,27466658528397475;-0,09155552842799158
12:03:19.681;0;Mov2;1;36;19;0;0;0;0,040675070919770656;0,04426404688906713;-0,08613544561553926;0;0,3357036042359691;-0,030518509475997192
12:03:19.681;0;Mov2;2;36;1;-1,9547960076067386;0,5646656816499832;9,586156613361004;-1,9547960076067386;0,5646656816499832;9,586156613361004;0;0,3357036042359691;-0,030518509475997192
12:03:19.685;0;Wrist;1;37;18;0;0;0;-0,03349711525577372;-0,12322153684060945;-0,010766930701942408;0,21362956633198035;0,3357036042359691;0,7629627368999298
12:03:19.686;0;Wrist;2;37;1;-8,448451376384778;0,537150205427717;4,936039403210547;-8,448451376384778;0,537150205427717;4,936039403210547;0,21362956633198035;0,3357036042359691;0,7629627368999298
12:03:19.687;0;Wrist;1;38;19;0;0;0;-0,01794488357188635;-0,12441786092190694;-0,0011963255947428648;0,15259254737998595;0;0,7324442274239327
12:03:19.687;0;Wrist;2;38;1;-8,448451376384778;0,5395428684919279;4,936039403210547;-8,448451376384778;0,5395428684919279;4,936039403210547;0,15259254737998595;0;0,7324442274239327
12:03:19.701;0;Mov;1;35;19;0;0;0;-0,02273018548518231;0,013159581658590389;-0,038282419031771674;0;0,24414807580797754;0,09155552842799158
12:03:19.701;0;Mov;2;35;1;-1,6545183130130925;-0,9187780865657521;9,61486880855739;-1,6545183130130925;-0,9187780865657521;9,61486880855739;0;0,24414807580797754;0,09155552842799158
12:03:19.701;0;Mov;1;36;19;0;0;0;-0,015552232615238368;0,009570604757942918;-0,026319163317180778;-0,030518509475997192;0,27466658528397475;0
12:03:19.702;0;Mov;2;36;1;-1,655714614741966;-0,9187780865657521;9,61486880855739;-1,655714614741966;-0,9187780865657521;9,61486880855739;-0,030518509475997192;0,27466658528397475;0
12:03:19.702;0;Mov;1;37;19;0;0;0;-0,010766930701942408;0,0119632557145909;-0,03349711525577372;0;0,21362956633198035;0
12:03:19.708;0;Mov2;1;37;19;0;0;0;0,027515489261180266;0,04187139500106815;-0,08135014183954131;0,09155552842799158;0,15259254737998595;0
12:03:19.708;0;Mov2;2;37;1;-1,9547960076067386;0,5658619833788567;9,586156613361004;-1,9547960076067386;0,5658619833788567;9,586156613361004;0,09155552842799158;0,15259254737998595;0
12:03:19.715;0;Wrist;1;39;19;0;0;0;0,00837427881394343;-0,11245460520731605;-0,007177953801294938;0,12207403790398877;-0,4272591326639607;0,8239997558519242
12:03:19.715;0;Wrist;2;39;1;-8,447255432294687;0,5407391702208014;4,937235824152348;-8,447255432294687;0,5407391702208014;4,937235824152348;0,12207403790398877;-0,4272591326639607;0,8239997558519242
12:03:19.738;0;Mov2;1;38;20;0;0;0;0,03349711525577372;0,0346934430624752;-0,08493911408343378;0,09155552842799158;0;0
12:03:19.738;0;Mov2;2;38;1;-1,9547960076067386;0,5670583447141941;9,586156613361004;-1,9547960076067386;0,5670583447141941;9,586156613361004;0,09155552842799158;0;0
12:03:19.738;0;Mov2;1;39;19;0;0;0;0,0346934430624752;0,021533861403884816;-0,09092074194072924;0,061037018951994385;0,030518509475997192;0,030518509475997192
12:03:19.738;0;Mov2;2;39;1;-1,953599705877865;0,5682546464430677;9,586156613361004;-1,953599705877865;0,5682546464430677;9,586156613361004;0,061037018951994385;0,030518509475997192;0,030518509475997192
12:03:19.745;0;Wrist;1;40;19;0;0;0;0,028711815205179753;-0,10288399765532014;-0,015552232615238368;0,030518509475997192;-0,7324442274239327;0,9155552842799157
12:03:19.746;0;Wrist;2;40;1;-8,444862590411084;0,5431318332850124;4,939628189184241;-8,444862590411084;0,5431318332850124;4,939628189184241;0,030518509475997192;-0,7324442274239327;0,9155552842799157
12:03:19.746;0;Wrist;1;41;18;0;0;0;0,02273018548518231;-0,13279214439260537;-0,010766930701942408;-0,030518509475997192;-0,45777764213995786;0,793481246375927
12:03:19.747;0;Wrist;2;41;1;-8,444862590411084;0,5443281350138859;4,942021031067843;-8,444862590411084;0,5443281350138859;4,942021031067843;-0,030518509475997192;-0,45777764213995786;0,793481246375927
12:03:19.762;0;Mov;1;38;19;0;0;0;-0,01794488357188635;0,027515489261180266;-0,0346934430624752;0;0,18311105685598317;0
12:03:19.762;0;Mov;2;38;1;-1,6593036391415144;-0,9175817252304147;9,613672864467299;-1,6593036391415144;-0,9175817252304147;9,613672864467299;0;0,18311105685598317;0
12:03:19.763;0;Mov;1;39;19;0;0;0;-0,01674855762788686;0,009570604757942918;-0,0478530228583636;-0,030518509475997192;0,061037018951994385;-0,030518509475997192
12:03:19.763;0;Mov;2;39;1;-1,660499940870388;-0,9175817252304147;9,613672864467299;-1,660499940870388;-0,9175817252304147;9,613672864467299;-0,030518509475997192;0,061037018951994385;-0,030518509475997192
12:03:19.764;0;Mov;1;40;19;0;0;0;-0,014355907602589877;0,014355907602589877;-0,02990813928647725;-0,061037018951994385;0,12207403790398877;0
12:03:19.764;0;Mov;2;40;1;-1,6616962425992614;-0,9175817252304147;9,613672864467299;-1,6616962425992614;-0,9175817252304147;9,613672864467299;-0,061037018951994385;0,12207403790398877;0
12:03:19.767;0;Mov2;1;40;19;0;0;0;-0,020337535459885328;-0,00598162785729545;-0,003588976900647469;0,09155552842799158;0,030518509475997192;0
12:03:19.767;0;Mov2;2;40;1;-1,9547960076067386;0,5682546464430677;9,584960669270913;-1,9547960076067386;0,5682546464430677;9,584960669270913;0,09155552842799158;0,030518509475997192;0
12:03:19.797;0;Mov2;1;41;18;0;0;0;-0,0717795342875454;-0,014355907602589877;0,07895748622613834;1,8616290780358287;-1,5564439832758568;0
12:03:19.807;0;Wrist;1;42;19;0;0;0;0,02273018548518231;-0,1770561875562685;0,00598162785729545;-0,061037018951994385;0,27466658528397475;0,7019257179479355
12:03:19.808;0;Wrist;2;42;1;-8,444862590411084;0,5443281350138859;4,940824610126041;-8,444862590411084;0,5443281350138859;4,940824610126041;-0,061037018951994385;0,27466658528397475;0,7019257179479355
12:03:19.808;0;Wrist;1;43;19;0;0;0;0,03708609495047418;-0,19739371929074984;0,00837427881394343;0,24414807580797754;0,8239997558519242;0,8850367748039186
12:03:19.809;0;Wrist;2;43;1;-8,446058534501175;0,5467207980780968;4,93843224509415;-8,446058534501175;0,5467207980780968;4,93843224509415;0,24414807580797754;0,8239997558519242;0,8850367748039186
12:03:19.809;0;Wrist;1;44;18;0;0;0;0,0358897671437727;-0,16270028367908262;-0,06699423051154745;0,3967406231879635;0;0,9765923032319102
12:03:19.809;0;Wrist;2;44;1;-8,446058534501175;0,5503097628711814;4,937235824152348;-8,446058534501175;0,5503097628711814;4,937235824152348;0,3967406231879635;0;0,9765923032319102
12:03:19.821;0;Mov;1;41;19;0;0;0;-0,028711815205179753;0,0239265114291818;-0,007177953801294938;-0,061037018951994385;0;0
12:03:19.821;0;Mov;2;41;1;-1,6616962425992614;-0,9163854235015412;9,613672864467299;-1,6616962425992614;-0,9163854235015412;9,613672864467299;-0,061037018951994385;0;0
12:03:19.821;0;Mov;1;42;19;0;0;0;-0,05503097852236053;0,025122837373181287;0,02273018548518231;-0,21362956633198035;-0,5798516800439466;0
12:03:19.821;0;Mov;2;42;1;-1,6616962425992614;-0,9163854235015412;9,613672864467299;-1,6616962425992614;-0,9163854235015412;9,613672864467299;-0,21362956633198035;-0,5798516800439466;0
12:03:19.830;0;Mov;1;43;18;0;0;0;-0,015552232615238368;-0,0119632557145909;-0,03230079117447623;-0,21362956633198035;-1,5564439832758568;-0,030518509475997192
12:03:19.830;0;Mov;2;43;1;-1,655714614741966;-0,9187780865657521;9,61486880855739;-1,655714614741966;-0,9187780865657521;9,61486880855739;-0,21362956633198035;-1,5564439832758568;-0,030518509475997192
12:03:19.830;0;Mov2;2;41;1;-1,9476180780205694;0,5778252390934476;9,586156613361004;-1,9476180780205694;0,5778252390934476;9,586156613361004;1,8616290780358287;-1,5564439832758568;0
12:03:19.831;0;Mov2;1;42;19;0;0;0;-0,08493911408343378;-0,052638326634361556;0,01794488357188635;3,6317026276436657;-4,394665364543596;0,24414807580797754
12:03:19.831;0;Mov2;2;42;1;-1,934458520577105;0,5897884948080385;9,588549455244605;-1,934458520577105;0,5897884948080385;9,588549455244605;3,6317026276436657;-4,394665364543596;0,24414807580797754
12:03:19.831;0;Mov2;1;43;19;0;0;0;-0,07297585836884289;0,021533861403884816;-0,02273018548518231;4,516739402447585;-7,812738425855281;1,73955504013184
12:03:19.832;0;Mov2;2;43;1;-1,906942984748375;0,6065370766510514;9,592138241218299;-1,906942984748375;0,6065370766510514;9,592138241218299;4,516739402447585;-7,812738425855281;1,73955504013184
12:03:19.835;0;Wrist;1;45;19;0;0;0;0,004785302378971459;-0,18543046357615894;-0,020337535459885328;0,12207403790398877;-1,098666341135899;0,3357036042359691
12:03:19.835;0;Wrist;2;45;1;-8,444862590411084;0,5503097628711814;4,940824610126041;-8,444862590411084;0,5503097628711814;4,940824610126041;0,12207403790398877;-1,098666341135899;0,3357036042359691
12:03:19.851;0;Mov;1;44;19;0;0;0;0,020337535459885328;0,0358897671437727;-0,0466566987770661;-0,21362956633198035;-1,5564439832758568;0
12:03:19.851;0;Mov;2;44;2;-1,6497329868846706;-0,9187780865657521;9,61606475264748;-1,6497329868846706;-0,9187780865657521;9,61606475264748;-0,21362956633198035;-1,5564439832758568;0
12:03:19.851;0;Mov;1;45;18;0;0;0;-0,013159581658590389;0,0239265114291818;-0,0478530228583636;-0,18311105685598317;-1,098666341135899;-0,15259254737998595
12:03:19.851;0;Mov;2;45;1;-1,6461439624851222;-0,9187780865657521;9,61606475264748;-1,6461439624851222;-0,9187780865657521;9,61606475264748;-0,18311105685598317;-1,098666341135899;-0,15259254737998595
12:03:19.858;0;Mov2;1;44;19;0;0;0;0,0717795342875454;0,12322153684060945;-0,17825251908837397;4,0284432508316295;-9,399700918607135;3,0823694570757163
12:03:19.859;0;Mov2;2;44;1;-1,873445940275277;0,6244819602229377;9,598119869075594;-1,873445940275277;0,6244819602229377;9,598119869075594;4,0284432508316295;-9,399700918607135;3,0823694570757163
12:03:19.859;0;Mov2;1;45;19;0;0;0;0,03349711525577372;0,04426404688906713;-0,0945097216354297;2,410962248603778;-8,087405011139255;2,1057771538438064
12:03:19.859;0;Mov2;2;45;1;-1,8459304044465468;0,6340525528733176;9,602905552842799;-1,8459304044465468;0,6340525528733176;9,602905552842799;2,410962248603778;-8,087405011139255;2,1057771538438064
12:03:19.865;0;Wrist;1;46;19;0;0;0;0,0358897671437727;-0,22132023071993165;-0,0717795342875454;-0,3967406231879635;-0,793481246375927;-0,15259254737998595
12:03:19.865;0;Wrist;2;46;1;-8,443665692617573;0,5479170998069705;4,943217452009644;-8,443665692617573;0,5479170998069705;4,943217452009644;-0,3967406231879635;-0,793481246375927;-0,15259254737998595
12:03:19.867;0;Wrist;1;47;19;0;0;0;0,0705832102062479;-0,18543046357615894;-0,11245460520731605;-1,4343699453718681;0,9155552842799157;-0,6103701895199438
12:03:19.867;0;Wrist;2;47;1;-8,446058534501175;0,5431318332850124;4,939628189184241;-8,446058534501175;0,5431318332850124;4,939628189184241;-1,4343699453718681;0,9155552842799157;-0,6103701895199438
12:03:19.880;0;Mov;1;46;19;0;0;0;-0,021533861403884816;0,010766930701942408;-0,038282419031771674;0,030518509475997192;-1,281777397991882;-0,3357036042359691
12:03:19.880;0;Mov;2;46;1;-1,6425550572985015;-0,9199743882946257;9,617261650440993;-1,6425550572985015;-0,9199743882946257;9,617261650440993;0,030518509475997192;-1,281777397991882;-0,3357036042359691
12:03:19.888;0;Mov2;1;46;18;0;0;0;-0,027515489261180266;0,040675070919770656;-0,058619954491657;2,2278511917477952;-8,087405011139255;1,7090365306558428
12:03:19.888;0;Mov2;2;46;1;-1,8184148686178168;0,6424268437948241;9,607691236610004;-1,8184148686178168;0,6424268437948241;9,607691236610004;2,2278511917477952;-8,087405011139255;1,7090365306558428
12:03:19.895;0;Wrist;1;48;19;0;0;0;0,01794488357188635;-0,17346720786156805;-0,11484726082071901;-0,9765923032319102;2,8687398907437363;-1,3428144169438765
12:03:19.896;0;Wrist;2;48;1;-8,454433004242073;0,5335612406346324;4,926468989379559;-8,454433004242073;0,5335612406346324;4,926468989379559;-0,9765923032319102;2,8687398907437363;-1,3428144169438765
12:03:19.918;0;Mov2;1;47;20;0;0;0;-0,020337535459885328;0,028711815205179753;-0,0011963255947428648;1,8921475875118259;-9,03347880489517;1,7700735496078372
12:03:19.919;0;Mov2;2;47;1;-1,7873104276024658;0,6508011347163305;9,612475966673788;-1,7873104276024658;0,6508011347163305;9,612475966673788;1,8921475875118259;-9,03347880489517;1,7700735496078372
12:03:19.919;0;Mov2;1;48;19;0;0;0;-0,13518479255520036;-0,040675070919770656;0,18423414694566942;3,2349620044557024;-10,132145146031068;1,281777397991882
12:03:19.919;0;Mov2;2;48;1;-1,7526169621875667;0,661568029095584;9,618457594531083;-1,7526169621875667;0,661568029095584;9,618457594531083;3,2349620044557024;-10,132145146031068;1,281777397991882
12:03:19.926;0;Wrist;1;49;18;0;0;0;-0,0693868861249504;-0,1794488357188635;-0,0717795342875454;-0,7324442274239327;2,380443739127781;-1,2207403790398876
12:03:19.927;0;Wrist;2;49;1;-8,459218688009278;0,527579612777337;4,919290940580462;-8,459218688009278;0,527579612777337;4,919290940580462;-0,7324442274239327;2,380443739127781;-1,2207403790398876
12:03:19.927;0;Wrist;1;50;19;0;0;0;-0,13638112408730582;-0,1794488357188635;-0,07656483806354335;-0,6714072084719382;2,044740134891812;-0,09155552842799158
12:03:19.927;0;Wrist;2;50;1;-8,460414632099369;0,5263832514419996;4,915701677755059;-8,460414632099369;0,5263832514419996;4,915701677755059;-0,6714072084719382;2,044740134891812;-0,09155552842799158
12:03:19.948;0;Mov2;1;49;18;0;0;0;0,025122837373181287;0,015552232615238368;-0,09690236979802469;5,523850215155492;-12,543107394634847;2,0142216254158147
12:03:19.949;0;Mov2;2;49;1;-1,7083529637287516;0,6819055757316813;9,624439222388379;-1,7083529637287516;0,6819055757316813;9,624439222388379;5,523850215155492;-12,543107394634847;2,0142216254158147
12:03:19.956;0;Wrist;1;51;19;0;0;0;-0,1507370279644917;-0,1794488357188635;-0,10168767357402264;-0,6103701895199438;1,2512588885158848;1,0376293221839046
12:03:19.979;0;Mov2;1;50;20;0;0;0;0,14714804826979125;0,08613544561553926;-0,20217903051755579;4,7303689687795645;-11,810663167210913;2,075258644367809
12:03:19.979;0;Mov2;2;50;1;-1,6664815687276833;0,701046820638905;9,631617748039186;-1,6664815687276833;0,701046820638905;9,631617748039186;4,7303689687795645;-11,810663167210913;2,075258644367809
12:03:19.979;0;Mov2;1;51;19;0;0;0;0,08254646592083881;0,040675070919770656;-0,14475540010719626;4,119998779259621;-10,132145146031068;1,2207403790398876
12:03:19.980;0;Mov2;2;51;1;-1,6317881033127841;0,7154026798112431;9,63640247810297;-1,6317881033127841;0,7154026798112431;9,63640247810297;4,119998779259621;-10,132145146031068;1,2207403790398876
12:03:19.985;0;Wrist;2;51;1;-8,46400341807306;0,527579612777337;4,910916470839564;-8,46400341807306;0,527579612777337;4,910916470839564;-0,6103701895199438;1,2512588885158848;1,0376293221839046
12:03:20.008;0;Mov2;1;52;18;0;0;0;0,0933133975541322;0,007177953801294938;-0,12322153684060945;3,5096285897396773;-8,667256691183203;1,1597033600878932
12:03:20.009;0;Mov2;2;52;1;-1,6006836622974334;0,727365935525834;9,639991264076663;-1,6006836622974334;0,727365935525834;9,639991264076663;3,5096285897396773;-8,667256691183203;1,1597033600878932
12:03:20.016;0;Wrist;1;52;19;0;0;0;-0,08613544561553926;-0,22610554194673757;-0,09092074194072924;-1,0376293221839046;-0,4882961516159551;1,4648884548478653
12:03:20.017;0;Wrist;2;52;1;-8,46280747398297;0,527579612777337;4,912112891781366;-8,46280747398297;0,527579612777337;4,912112891781366;-1,0376293221839046;-0,4882961516159551;1,4648884548478653
12:03:20.017;0;Wrist;1;53;19;0;0;0;-0,06819056204365291;-0,2739585499034852;-0,14714804826979125;-1,6479995117038484;-0,15259254737998595;0,8239997558519242
12:03:20.025;0;Wrist;2;53;1;-8,46280747398297;0,5263832514419996;4,912112891781366;-8,46280747398297;0,5263832514419996;4,912112891781366;-1,6479995117038484;-0,15259254737998595;0,8239997558519242
12:03:20.026;0;Wrist;1;54;19;0;0;0;-0,0933133975541322;-0,3086520153183844;-0,1507370279644917;-1,8921475875118259;0,3967406231879635;-0,36622211371196634
12:03:20.026;0;Wrist;2;54;0;-8,46400341807306;0,5192053218558306;4,910916470839564;-8,46400341807306;0,5192053218558306;4,910916470839564;-1,8921475875118259;0,3967406231879635;-0,36622211371196634
12:03:20.033;0;Mov;1;47;20;0;0;0;-0,021533861403884816;0,00837427881394343;-0,031104465230476736;0,061037018951994385;-1,3733329264198737;-0,27466658528397475
12:03:20.033;0;Mov;2;47;1;-1,6377697311700796;-0,9199743882946257;9,617261650440993;-1,6377697311700796;-0,9199743882946257;9,617261650440993;0,061037018951994385;-1,3733329264198737;-0,27466658528397475
12:03:20.033;0;Mov;1;48;19;0;0;0;-0,0346934430624752;-0,015552232615238368;-0,0119632557145909;0,09155552842799158;-1,4648884548478653;-0,27466658528397475
12:03:20.033;0;Mov;2;48;1;-1,6329844050416578;-0,9199743882946257;9,618457594531083;-1,6329844050416578;-0,9199743882946257;9,618457594531083;0,09155552842799158;-1,4648884548478653;-0,27466658528397475
12:03:20.035;0;Mov;1;49;18;0;0;0;-0,07895748622613834;-0,004785302378971459;0,03708609495047418;0,36622211371196634;-2,1057771538438064;-0,18311105685598317
12:03:20.035;0;Mov;2;49;1;-1,6270027771843623;-0,9187780865657521;9,619654492324594;-1,6270027771843623;-0,9187780865657521;9,619654492324594;0,36622211371196634;-2,1057771538438064;-0,18311105685598317
12:03:20.038;0;Mov2;1;53;20;0;0;0;-0,11365092928861355;-0,0598162785729545;0,33018586368335523;4,913480025635548;-7,324442274239326;1,0376293221839046
12:03:20.038;0;Mov2;2;53;1;-1,5767571508682516;0,7441145173688467;9,642384105960264;-1,5767571508682516;0,7441145173688467;9,642384105960264;4,913480025635548;-7,324442274239326;1,0376293221839046
12:03:20.038;0;Mov2;1;54;19;-0,7620594009407331;0;0,9032258064516129;-0,7620594009407331;-0,2859218056180761;0,9032258064516129;12,329477828302865;-9,643848994415112;0,7629627368999298
12:03:20.038;0;Mov2;2;54;1;-1,550437916768395;0,7823969475768303;9,643581003753777;-1,550437916768395;0,7823969475768303;9,643581003753777;12,329477828302865;-9,643848994415112;0,7629627368999298
12:03:20.045;0;Wrist;1;55;20;0;0;0;-0,11604358490201651;-0,3050630207220679;-0,0945097216354297;-1,4954069643238623;-0,18311105685598317;-1,1597033600878932
12:03:20.046;0;Wrist;2;55;1;-8,46400341807306;0,5120273326631978;4,910916470839564;-8,46400341807306;0,5120273326631978;4,910916470839564;-1,4954069643238623;-0,18311105685598317;-1,1597033600878932
12:03:20.046;0;Wrist;1;56;18;0;0;0;-0,08972441785943175;-0,2548173646027253;-0,1339884610230949;-1,3122959074678793;-0,4272591326639607;-0,640888698995941
12:03:20.050;0;Wrist;2;56;1;-8,46400341807306;0,5072420661412397;4,912112891781366;-8,46400341807306;0,5072420661412397;4,912112891781366;-1,3122959074678793;-0,4272591326639607;-0,640888698995941
12:03:20.062;0;Mov;1;55;19;0;0;0;-0,15193334459498123;0,027515489261180266;0,13518479255520036;0,8239997558519242;-4,364146855067599;-1,0071108127079074
12:03:20.062;0;Mov;2;55;1;-1,5456527098529007;-0,9020295047227394;9,634009636219368;-1,5456527098529007;-0,9020295047227394;9,634009636219368;0,8239997558519242;-4,364146855067599;-1,0071108127079074
12:03:20.070;0;Mov2;1;55;18;0;0;0;0,30386668918996246;0,03708609495047418;-0,33257852674756616;13,245033112582782;-13,763847773674733;2,1362956633198036
12:03:20.070;0;Mov2;2;55;1;-1,4954069643238623;0,8326426334994049;9,64836573381756;-1,4954069643238623;0,8326426334994049;9,64836573381756;13,245033112582782;-13,763847773674733;2,1362956633198036
12:03:20.076;0;Wrist;1;57;19;0;0;0;-0,07536851398224585;-0,2512283700064089;-0,18543046357615894;-1,4648884548478653;0,24414807580797754;-0,030518509475997192
12:03:20.077;0;Wrist;2;57;1;-8,465200315866573;0,5036531013481551;4,909720049897763;-8,465200315866573;0,5036531013481551;4,909720049897763;-1,4648884548478653;0,24414807580797754;-0,030518509475997192
12:03:20.099;0;Mov2;1;56;20;0;0;0;0,18782311173875393;0,019141209515885837;-0,0011963255947428648;16,96829126865444;-12,81777397991882;0,3967406231879635
12:03:20.100;0;Mov2;2;56;1;-1,4511429658650472;0,891262550737022;9,650758575701163;-1,4511429658650472;0,891262550737022;9,650758575701163;16,96829126865444;-12,81777397991882;0,3967406231879635
12:03:20.100;0;Mov2;1;57;19;-0,9163854235015412;0;1,6736594983138524;-0,9163854235015412;-0,32300790429395426;1,6736594983138524;25,849177526169623;-9,88799707022309;-0,6714072084719382
12:03:20.100;0;Mov2;2;57;1;-1,4260201527069918;0,9738090390102847;9,645972891933958;-1,4260201527069918;0,9738090390102847;9,645972891933958;25,849177526169623;-9,88799707022309;-0,6714072084719382
12:03:20.106;0;Wrist;1;58;20;0;0;0;-0,11365092928861355;-0,2823328408249916;-0,15193334459498123;-2,5025177770317697;1,2512588885158848;-0,030518509475997192
12:03:20.106;0;Wrist;2;58;1;-8,468789101840267;0,49408247889454326;4,903738422040467;-8,468789101840267;0,49408247889454326;4,903738422040467;-2,5025177770317697;1,2512588885158848;-0,030518509475997192
12:03:20.107;0;Wrist;1;59;18;0;0;0;-0,1435590685750908;-0,3828241828669088;-0,17346720786156805;-3,295999023407697;2,4719992675557725;0,061037018951994385
12:03:20.107;0;Wrist;2;59;1;-8,474770729697562;0,48690451950514235;4,896560850093081;-8,474770729697562;0,48690451950514235;4,896560850093081;-3,295999023407697;2,4719992675557725;0,061037018951994385
12:03:20.122;0;Mov;1;56;18;0;0;0;0,007177953801294938;-0,06101260637965598;-0,08613544561553926;2,166814172795801;-7,5685903500473035;-1,4648884548478653
12:03:20.122;0;Mov;2;56;2;-1,5193334757530441;-0,8972441785943175;9,638795319986572;-1,5193334757530441;-0,8972441785943175;9,638795319986572;2,166814172795801;-7,5685903500473035;-1,4648884548478653
12:03:20.122;0;Mov;1;57;19;0;0;0;0,052638326634361556;-0,0011963255947428648;-0,12441786092190694;2,7771843623157446;-6,653035065767388;-1,0071108127079074
12:03:20.122;0;Mov;2;57;1;-1,4954069643238623;-0,8876735859439375;9,643581003753777;-1,4954069643238623;-0,8876735859439375;9,643581003753777;2,7771843623157446;-6,653035065767388;-1,0071108127079074
12:03:20.123;0;Mov;1;58;18;0;0;0;0,0011963255947428648;0,05742363041035951;-0,05742363041035951;2,166814172795801;-4,791405987731559;-0,6714072084719382
12:03:20.123;0;Mov;2;58;1;-1,4786583824808497;-0,8792992950224311;9,647169789727469;-1,4786583824808497;-0,8792992950224311;9,647169789727469;2,166814172795801;-4,791405987731559;-0,6714072084719382
12:03:20.123;0;Mov;2;59;1;-1,4654988250373853;-0,8733176671651357;9,649562631611072;-1,4654988250373853;-0,8733176671651357;9,649562631611072;1,7700735496078372;-4,089480269783624;-0,7019257179479355
12:03:20.129;0;Mov2;1;58;18;0;-0,5646656816499832;0;-0,3170262764366588;-0,5646656816499832;0,2703695851104007;37,44621112704856;-11,047700430310984;2,5940733054597613
12:03:20.129;0;Mov2;2;58;1;-1,3853450594347971;1,0994232240134891;9,638795319986572;-1,3853450594347971;1,0994232240134891;9,638795319986572;37,44621112704856;-11,047700430310984;2,5940733054597613
12:03:20.136;0;Wrist;1;60;19;0;0;0;-0,12322153684060945;-0,4139286536854915;-0,23806879766132846;-4,333628345591602;3,021332438123722;0,5493331705679495
12:03:20.137;0;Wrist;2;60;1;-8,479555459761345;0,478530228583636;4,886989959410382;-8,479555459761345;0,478530228583636;4,886989959410382;-4,333628345591602;3,021332438123722;0,5493331705679495
12:03:20.151;0;Mov;1;60;19;0;0;0;0,0119632557145909;0,0478530228583636;-0,10049134949272515;1,7700735496078372;-3,448591570787683;-0,640888698995941
12:03:20.158;0;Mov2;1;59;20;0,7154026798112431;0;-1,442768615337077;0,7154026798112431;0,37564622347750787;-1,442768615337077;28,77895443586535;-8,209479049043244;8,423108615375225
12:03:20.158;0;Mov2;2;59;1;-1,3458662678914761;1,2118778515732291;9,630420850245674;-1,3458662678914761;1,2118778515732291;9,630420850245674;28,77895443586535;-8,209479049043244;8,423108615375225
12:03:20.158;0;Mov2;1;60;19;0,710617413289285;0,527579612777337;-0,9989318521683401;0,710617413289285;0,527579612777337;-0,9989318521683401;13,275551622058778;-3,326517532883694;5,829035309915464
12:03:20.158;0;Mov2;2;60;1;-1,3303141069902646;1,2633197796182134;9,625636120181891;-1,3303141069902646;1,2633197796182134;9,625636120181891;13,275551622058778;-3,326517532883694;5,829035309915464
12:03:20.165;0;Wrist;1;61;20;0;0;0;-0,15911130398438214;-0,37205725868442335;-0,2739585499034852;-5,371257667775506;1,8616290780358287;0,8239997558519242
12:03:20.165;0;Wrist;2;61;1;-8,48434114352855;0,47135229899746695;4,881008331553087;-8,48434114352855;0,47135229899746695;4,881008331553087;-5,371257667775506;1,8616290780358287;0,8239997558519242
12:03:20.188;0;Mov2;1;61;18;0;0;-1,0408032471694082;0,417517618478576;0,2524247015385144;-1,0408032471694082;10,467848750267036;-5,920590838343455;3,6011841181676685
12:03:20.188;0;Mov2;2;61;1;-1,30878019901883;1,3004059677037874;9,624439222388379;-1,30878019901883;1,3004059677037874;9,624439222388379;10,467848750267036;-5,920590838343455;3,6011841181676685
12:03:20.195;0;Wrist;1;62;18;0;0;0;-0,2488357218438139;-0,42110661307489244;-0,2787438760319071;-4,943998535111545;0,5188146610919523;1,4648884548478653
12:03:20.196;0;Wrist;2;62;1;-8,48553708761864;0,4653706711401715;4,8786159665211954;-8,48553708761864;0,4653706711401715;4,8786159665211954;-4,943998535111545;0,5188146610919523;1,4648884548478653
12:03:20.197;0;Wrist;1;63;19;0;-0,5646656816499832;0;-0,26917325357829525;-0,5646656816499832;-0,3182226079687643;-4,0284432508316295;-0,5798516800439466;3,204443494979705
12:03:20.197;0;Wrist;2;63;1;-8,48553708761864;0,46417433960806603;4,879811910611286;-8,48553708761864;0,46417433960806603;4,879811910611286;-4,0284432508316295;-0,5798516800439466;3,204443494979705
12:03:20.214;0;Mov;2;60;1;-1,4523392675939206;-0,8673360393078402;9,651954519791254;-1,4523392675939206;-0,8673360393078402;9,651954519791254;1,7700735496078372;-3,448591570787683;-0,640888698995941
12:03:20.214;0;Mov;1;61;19;0;0;0;0,020337535459885328;0,03708609495047418;-0,10886562551261558;0,9765923032319102;-1,8005920590838342;-0,45777764213995786
12:03:20.215;0;Mov;2;61;1;-1,4499466641361736;-0,8661397375789667;9,653151417584764;-1,4499466641361736;-0,8661397375789667;9,653151417584764;0,9765923032319102;-1,8005920590838342;-0,45777764213995786
12:03:20.215;0;Mov;1;62;18;0;0;0;0,013159581658590389;0,0346934430624752;-0,09092074194072924;0,24414807580797754;-0,18311105685598317;-0,3357036042359691
12:03:20.215;0;Mov;2;62;1;-1,4487502431943724;-0,8649433762436293;9,653151417584764;-1,4487502431943724;-0,8649433762436293;9,653151417584764;0,24414807580797754;-0,18311105685598317;-0,3357036042359691
12:03:20.215;0;Mov;1;63;19;0;0;0;-0,004785302378971459;0,0239265114291818;-0,06819056204365291;0,21362956633198035;0,5188146610919523;-0,3051850947599719
12:03:20.217;0;Mov2;1;62;20;0;0;-0,6436231455236976;0,30745568378627885;0,3708609271523179;-0,6436231455236976;6,2868129520554215;-3,021332438123722;2,197332682271798
12:03:20.227;0;Wrist;1;64;19;0;-0,6041444135868405;0;-0,14834437980189671;-0,6041444135868405;-0,39837643317781607;-3,662221137119663;-0,9460737937559129;4,516739402447585
12:03:20.242;0;Mov;1;64;19;0;0;0;-0,020337535459885328;0,028711815205179753;-0,0239265114291818;0,24414807580797754;0,7629627368999298;-0,5188146610919523
12:03:20.242;0;Mov;2;64;1;-1,4535355693227943;-0,8625507727858821;9,651954519791254;-1,4535355693227943;-0,8625507727858821;9,651954519791254;0,24414807580797754;0,7629627368999298;-0,5188146610919523
12:03:20.242;0;Mov;1;65;18;0;0;0;-0,02273018548518231;0,0598162785729545;-0,003588976900647469;-0,3051850947599719;1,0681478316599018;-0,5493331705679495
12:03:20.242;0;Mov;2;65;2;-1,4571245937223427;-0,8625507727858821;9,651954519791254;-1,4571245937223427;-0,8625507727858821;9,651954519791254;-0,3051850947599719;1,0681478316599018;-0,5493331705679495
12:03:20.250;0;Mov2;2;62;1;-1,296816943304239;1,3243324791329691;9,622046380504775;-1,296816943304239;1,3243324791329691;9,622046380504775;6,2868129520554215;-3,021332438123722;2,197332682271798
12:03:20.250;0;Mov2;1;63;19;0;0;0;0,13279214439260537;0,09690236979802469;-0,35291604358043155;4,638813440351573;-0,9155552842799157;-0,3357036042359691
12:03:20.250;0;Mov2;2;63;1;-1,2944243398464919;1,3386883383053072;9,620850436414685;-1,2944243398464919;1,3386883383053072;9,620850436414685;4,638813440351573;-0,9155552842799157;-0,3357036042359691
12:03:20.251;0;Mov2;1;64;18;0;0;0;0,10408032918742562;0,01674855762788686;-0,2476394052133244;3,6011841181676685;1,5564439832758568;-0,4272591326639607
12:03:20.251;0;Mov2;2;64;1;-1,3004059677037874;1,350651594019898;9,618457594531083;-1,3004059677037874;1,350651594019898;9,618457594531083;3,6011841181676685;1,5564439832758568;-0,4272591326639607
12:03:20.258;0;Wrist;2;64;0;-8,48434114352855;0,468959635933256;4,881008331553087;-8,48434114352855;0,468959635933256;4,881008331553087;-3,662221137119663;-0,9460737937559129;4,516739402447585
12:03:20.258;0;Wrist;1;65;19;0;0;0;-0,0933133975541322;-0,4928861473624378;-0,417517618478576;-4,211554307687613;-1,8005920590838342;4,303109836115604
12:03:20.259;0;Wrist;2;65;1;-8,480752357554858;0,473744932258446;4,885793538468581;-8,480752357554858;0,473744932258446;4,885793538468581;-4,211554307687613;-1,8005920590838342;4,303109836115604
12:03:20.259;0;Wrist;1;66;19;0;0;0;-0,1543260076591922;-0,4223029446069979;-0,4019653979709006;-5,340739158299509;-4,0284432508316295;3,2654805139316996
12:03:20.259;0;Wrist;2;66;1;-8,474770729697562;0,47254860072634053;4,897756794183172;-8,474770729697562;0,47254860072634053;4,897756794183172;-5,340739158299509;-4,0284432508316295;3,2654805139316996
12:03:20.259;0;Wrist;1;67;19;0;0;0;-0,234479817966628;-0,468959635933256;-0,34095278786584066;-5,340739158299509;-5,096591082491531;2,71614734336375
12:03:20.271;0;Mov;1;66;18;0;0;0;-0,01674855762788686;0,04187139500106815;-0,0466566987770661;-0,9155552842799157;0,8850367748039186;-0,7019257179479355
12:03:20.271;0;Mov;2;66;1;-1,4607134989089632;-0,8661397375789667;9,650758575701163;-1,4607134989089632;-0,8661397375789667;9,650758575701163;-0,9155552842799157;0,8850367748039186;-0,7019257179479355
12:03:20.300;0;Mov;1;67;19;0;0;0;0,08852809377813425;-0,06101260637965598;-0,16509293184167761;-0,7019257179479355;1,3428144169438765;-0,8239997558519242
12:03:20.301;0;Mov;2;67;1;-1,463106221579638;-0,8721213654362621;9,649562631611072;-1,463106221579638;-0,8721213654362621;9,649562631611072;-0,7019257179479355;1,3428144169438765;-0,8239997558519242
12:03:20.309;0;Mov2;1;65;19;0;0;-0,6663533552240058;0,23567614949873347;0,0693868861249504;-0,6663533552240058;1,1597033600878932;2,8992584002197335;0,24414807580797754
12:03:20.309;0;Mov2;2;65;1;-1,30878019901883;1,3566332218771935;9,61606475264748;-1,30878019901883;1,3566332218771935;9,61606475264748;1,1597033600878932;2,8992584002197335;0,24414807580797754
12:03:20.311;0;Mov2;1;66;19;0;0;-1,0216620618686483;0,4426404614398633;0,20337534714804528;-1,0216620618686483;-5,76799829096347;2,9602954191717274;1,8005920590838342
12:03:20.311;0;Mov2;2;66;1;-1,3159581286049988;1,3398846400341808;9,617261650440993;-1,3159581286049988;1,3398846400341808;9,617261650440993;-5,76799829096347;2,9602954191717274;1,8005920590838342
12:03:20.311;0;Mov2;1;67;19;0;0;-0,8469984926717429;0,39119847378841516;0,2775475444998016;-0,8469984926717429;-15,655995361186559;7,263405255287331;3,3875545518356884
12:03:20.312;0;Mov2;1;68;18;0;0;0;0,09092074194072924;0,05144199882766007;-0,14714804826979125;-23,194067201757868;14,923551133762627;3,0823694570757163
12:03:20.331;0;Mov;1;68;19;0;0;0;-0,007177953801294938;0,003588976900647469;0;-0,21362956633198035;3,4180730613116856;-0,7324442274239327
12:03:20.331;0;Mov;2;68;1;-1,482247406880398;-0,8721213654362621;9,647169789727469;-1,482247406880398;-0,8721213654362621;9,647169789727469;-0,21362956633198035;3,4180730613116856;-0,7324442274239327
12:03:20.332;0;Mov;1;69;19;0;0;0;-0,0358897671437727;0,026319163317180778;0,009570604757942918;-0,18311105685598317;3,5096285897396773;-0,36622211371196634
12:03:20.332;0;Mov;2;69;1;-1,494210662594989;-0,8721213654362621;9,644776947843868;-1,494210662594989;-0,8721213654362621;9,644776947843868;-0,18311105685598317;3,5096285897396773;-0,36622211371196634
12:03:20.338;0;Mov2;2;68;2;-1,3889339646214178;1,2106815498443555;9,624439222388379;-1,3889339646214178;1,2106815498443555;9,624439222388379;-23,194067201757868;14,923551133762627;3,0823694570757163
12:03:20.338;0;Mov2;1;69;20;0;0;0;-0,06579790643024995;-0,16389660030957212;0,3708609271523179;-32,50221259193701;21,271401104770042;1,922666096987823
12:03:20.338;0;Mov2;2;69;1;-1,4607134989089632;1,0982269222846157;9,626832064271982;-1,4607134989089632;1,0982269222846157;9,626832064271982;-32,50221259193701;21,271401104770042;1,922666096987823
12:03:20.346;0;Wrist;2;67;2;-8,466396259956664;0,468959635933256;4,912112891781366;-8,466396259956664;0,468959635933256;4,912112891781366;-5,340739158299509;-5,096591082491531;2,71614734336375
12:03:20.347;0;Wrist;1;68;18;0;-0,5383465071565905;0;-0,21055330653744622;-0,5383465071565905;-0,2823328408249916;-5,066072573015534;-4,394665364543596;2,71614734336375
12:03:20.347;0;Wrist;2;68;1;-8,458021790215765;0,4653706711401715;4,925272568437758;-8,458021790215765;0,4653706711401715;4,925272568437758;-5,066072573015534;-4,394665364543596;2,71614734336375
12:03:20.347;0;Wrist;1;69;19;0;-0,5562913907284768;0;-0,117239908983314;-0,5562913907284768;-0,29668875960379343;-4,852443006683553;-3,8758507034516434;2,685628833887753
12:03:20.348;0;Wrist;2;69;1;-8,45204016235847;0,46297800807596057;4,937235824152348;-8,45204016235847;0,46297800807596057;4,937235824152348;-4,852443006683553;-3,8758507034516434;2,685628833887753
12:03:20.349;0;Wrist;1;70;19;0;-0,5586840537926878;0;-0,1543260076591922;-0,5586840537926878;-0,38043154960592973;-3,9979247413556322;-3,8758507034516434;2,685628833887753
12:03:20.360;0;Mov;1;70;18;0;0;0;-0,0466566987770661;0,003588976900647469;0,014355907602589877;-0,21362956633198035;2,8992584002197335;-0,12207403790398877
12:03:20.360;0;Mov;2;70;1;-1,5049776165807063;-0,8733176671651357;9,643581003753777;-1,5049776165807063;-0,8733176671651357;9,643581003753777;-0,21362956633198035;2,8992584002197335;-0,12207403790398877
12:03:20.367;0;Mov2;1;70;19;0;0;0;0,04546037097036462;0,04306772280776963;-0,03230079117447623;-21,607104709006013;12,17688528092288;-0,9155552842799157
12:03:20.368;0;Mov2;2;70;1;-1,5025848939100315;1,0264473879970701;9,629224906155583;-1,5025848939100315;1,0264473879970701;9,629224906155583;-21,607104709006013;12,17688528092288;-0,9155552842799157
12:03:20.375;0;Wrist;1;72;18;0;0;0;-0,12800683316579944;-0,4952788104266488;-0,31104464857936337;-5,340739158299509;-3,936887722403638;3,5096285897396773
12:03:20.376;0;Wrist;2;72;1;-8,434095278786584;0,4617816765438551;4,968340384380626;-8,434095278786584;0,4617816765438551;4,968340384380626;-5,340739158299509;-3,936887722403638;3,5096285897396773
12:03:20.391;0;Mov;1;71;19;0;0;0;-0,07297585836884289;-0,06220893046095347;-0,019141209515885837;0,24414807580797754;1,7700735496078372;-0,15259254737998595
12:03:20.391;0;Mov;2;71;1;-1,5073702200384533;-0,8733176671651357;9,643581003753777;-1,5073702200384533;-0,8733176671651357;9,643581003753777;0,24414807580797754;1,7700735496078372;-0,15259254737998595
12:03:20.392;0;Mov;1;72;19;0;0;0;-0,0023926511894857296;-0,00598162785729545;-0,10168767357402264;0,8239997558519242;0,030518509475997192;-0,3357036042359691
12:03:20.392;0;Mov;2;72;1;-1,5073702200384533;-0,8709250041009247;9,643581003753777;-1,5073702200384533;-0,8709250041009247;9,643581003753777;0,8239997558519242;0,030518509475997192;-0,3357036042359691
12:03:20.397;0;Mov2;1;71;19;0;0;0;0,052638326634361556;0,09092074194072924;-0,17107455969897306;-16,907254249702444;8,636738181707205;-2,3194067201757864
12:03:20.407;0;Wrist;1;73;19;0;0;0;-0,004785302378971459;-0,4055543627639851;-0,22371287888252664;-5,7374797814874725;-4,760887478255562;3,448591570787683
12:03:20.408;0;Wrist;2;73;1;-8,424524864955595;0,46058534501174964;4,983892426068911;-8,424524864955595;0,46058534501174964;4,983892426068911;-5,7374797814874725;-4,760887478255562;3,448591570787683
12:03:20.409;0;Wrist;1;74;19;0;0;0;0,12082888867801446;-0,3947874385814997;-0,10049134949272515;-5,066072573015534;-3,814813684499649;3,814813684499649
12:03:20.409;0;Wrist;2;74;1;-8,41734729300821;0,4617816765438551;4,997052102725303;-8,41734729300821;0,4617816765438551;4,997052102725303;-5,066072573015534;-3,814813684499649;3,814813684499649
12:03:20.420;0;Mov;1;73;19;0;0;0;0,040675070919770656;-0,014355907602589877;-0,0837427900021363;1,1291848506118962;0,5493331705679495;0
12:03:20.421;0;Mov;2;73;1;-1,5073702200384533;-0,8661397375789667;9,643581003753777;-1,5073702200384533;-0,8661397375789667;9,643581003753777;1,1291848506118962;0,5493331705679495;0
12:03:20.422;0;Mov;1;74;18;0;0;0;-0,038282419031771674;-0,056227302603658026;-0,020337535459885328;1,1902218695638904;1,586962492751854;0,640888698995941
12:03:20.422;0;Mov;2;74;1;-1,5145481496246223;-0,8625507727858821;9,642384105960264;-1,5145481496246223;-0,8625507727858821;9,642384105960264;1,1902218695638904;1,586962492751854;0,640888698995941
12:03:20.432;0;Mov2;2;71;1;-1,5324930331965088;0,9678274111529893;9,630420850245674;-1,5324930331965088;0,9678274111529893;9,630420850245674;-16,907254249702444;8,636738181707205;-2,3194067201757864
12:03:20.432;0;Mov2;1;72;19;0;0;0;0,1339884610230949;0,05024567474636257;-0,08015381775824382;-15,503402813806574;6,2868129520554215;-2,685628833887753
12:03:20.432;0;Mov2;2;72;1;-1,5540269411679433;0,9139927604373302;9,631617748039186;-1,5540269411679433;0,9139927604373302;9,631617748039186;-15,503402813806574;6,2868129520554215;-2,685628833887753
12:03:20.432;0;Mov2;1;73;19;0;0;0;0,36009400296983246;0,15193334459498123;-0,2751548814355907;-16,479995117038484;6,591998046815394;-3,6011841181676685
12:03:20.432;0;Mov2;2;73;1;-1,5743644281975768;0,8565691449285867;9,634009636219368;-1,5743644281975768;0,8565691449285867;9,634009636219368;-16,479995117038484;6,591998046815394;-3,6011841181676685
12:03:20.435;0;Wrist;1;75;19;0;-0,5287759145062105;0;0,1411664204124958;-0,5287759145062105;0,03708609495047418;-4,577776421399578;-0,6103701895199438;5,035554063539537
12:03:20.435;0;Wrist;2;75;1;-8,413757553331095;0,4653706711401715;5,000640888698996;-8,413757553331095;0,4653706711401715;5,000640888698996;-4,577776421399578;-0,6103701895199438;5,035554063539537
12:03:20.451;0;Mov;1;75;19;0;0;0;-0,007177953801294938;0,00598162785729545;-0,09809870133013016;1,4343699453718681;1,5259254737998595;1,2207403790398876
12:03:20.451;0;Mov;2;75;1;-1,5229225001525926;-0,8529801205290384;9,642384105960264;-1,5229225001525926;-0,8529801205290384;9,642384105960264;1,4343699453718681;1,5259254737998595;1,2207403790398876
12:03:20.458;0;Mov2;1;74;18;0;0;0;0,28472550388920254;0,11365092928861355;-0,14714804826979125;-15,411847285378583;9,949034089175084;-5,7374797814874725
12:03:20.458;0;Mov2;2;74;1;-1,609057893612476;0,8003418311487167;9,632813692129277;-1,609057893612476;0,8003418311487167;9,632813692129277;-15,411847285378583;9,949034089175084;-5,7374797814874725
12:03:20.458;0;Mov2;1;75;19;0;0;0;0,29190343347537157;-0,05024567474636257;0,10408032918742562;-15,289773247474594;14,618366039002655;-7,812738425855281
12:03:20.459;0;Mov2;2;75;1;-1,660499940870388;0,7429182156399732;9,629224906155583;-1,660499940870388;0,7429182156399732;9,629224906155583;-15,289773247474594;14,618366039002655;-7,812738425855281
12:03:20.488;0;Mov2;1;76;19;0,6567827625736259;0;0;0,6567827625736259;-0,0346934430624752;-0,00598162785729545;-12,482070375682852;21,790215765861994;-7,263405255287331
12:03:20.489;0;Mov2;2;76;1;-1,7310831734290597;0,6950651927816095;9,619654492324594;-1,7310831734290597;0,6950651927816095;9,619654492324594;-12,482070375682852;21,790215765861994;-7,263405255287331
12:03:20.496;0;Wrist;1;76;19;0;-0,6783166109385967;0;0,23089083827192755;-0,6783166109385967;0,14714804826979125;-4,638813440351573;5,188146610919523;6,073183385723441
12:03:20.497;0;Wrist;2;76;1;-8,420936078981903;0,47135229899746695;4,987481212042604;-8,420936078981903;0,47135229899746695;4,987481212042604;-4,638813440351573;5,188146610919523;6,073183385723441
12:03:20.497;0;Wrist;1;77;19;0,5515061242065188;-0,6364452159375286;0;0,5515061242065188;-0,6364452159375286;0,13039949623001038;-5,340739158299509;11,474959562974945;4,66933194982757
12:03:20.497;0;Wrist;2;77;1;-8,438880962553789;0,473744932258446;4,9575730727561265;-8,438880962553789;0,473744932258446;4,9575730727561265;-5,340739158299509;11,474959562974945;4,66933194982757
12:03:20.497;0;Wrist;1;78;19;0,947489864516892;0;0;0,947489864516892;-0,37923521807382427;0,1866267951082644;-5,066072573015534;13,824884792626728;0,21362956633198035
12:03:20.498;0;Wrist;2;78;1;-8,461610576189459;0,4665669728690451;4,920487361522263;-8,461610576189459;0,4665669728690451;4,920487361522263;-5,066072573015534;13,824884792626728;0,21362956633198035
12:03:20.498;0;Wrist;2;79;2;-8,486733985412153;0,4498184208292642;4,8786159665211954;-8,486733985412153;0,4498184208292642;4,8786159665211954;-1,8311105685598315;15,381328775902585;-4,852443006683553
12:03:20.512;0;Mov;1;76;19;0;0;0;0,18423414694566942;-0,0346934430624752;-0,31582994490455335;1,6479995117038484;2,6551103244117558;2,0142216254158147
12:03:20.512;0;Mov;2;76;1;-1,5312967314676351;-0,8469984926717429;9,641188161870174;-1,5312967314676351;-0,8469984926717429;9,641188161870174;1,6479995117038484;2,6551103244117558;2,0142216254158147
12:03:20.514;0;Mov;1;77;19;0;0;0;-0,007177953801294938;-0,0023926511894857296;-0,08135014183954131;1,7090365306558428;6,988738670003357;3,5401470992156745
12:03:20.514;0;Mov;2;77;1;-1,5576159655674917;-0,8398205630855738;9,638795319986572;-1,5576159655674917;-0,8398205630855738;9,638795319986572;1,7090365306558428;6,988738670003357;3,5401470992156745
12:03:20.514;0;Mov;1;78;18;0;0;0;-0,10288399765532014;0,040675070919770656;0,02273018548518231;1,6479995117038484;7,293923764763329;4,4557023834955904
12:03:20.514;0;Mov;2;78;1;-1,5839350804544206;-0,830249970435194;9,635206534012879;-1,5839350804544206;-0,830249970435194;9,635206534012879;1,6479995117038484;7,293923764763329;4,4557023834955904
12:03:20.518;0;Mov2;1;77;19;0,8410168648144475;0;0;0,8410168648144475;0,37684255500961333;-0,09211707347283471;-9,186071352275155;26,947843867305522;-8,972441785943175
12:03:20.518;0;Mov2;2;77;1;-1,8208075912884916;0,6627643904309214;9,605298394726402;-1,8208075912884916;0,6627643904309214;9,605298394726402;-9,186071352275155;26,947843867305522;-8,972441785943175
12:03:20.519;0;Mov2;1;78;18;1,5073702200384533;0,6328562511444441;0;1,5073702200384533;0,6328562511444441;0,056227302603658026;-8,667256691183203;31,586657307657095;-16,84621723075045
12:03:20.519;0;Mov2;2;78;1;-1,9212989631336406;0,6268746232871486;9,588549455244605;-1,9212989631336406;0,6268746232871486;9,588549455244605;-8,667256691183203;31,586657307657095;-16,84621723075045
12:03:20.541;0;Mov;1;79;20;0;0;0;-0,1184362330646115;0,13279214439260537;0,06101260637965598;1,4343699453718681;4,8829615161595505;3,47911008026368
12:03:20.541;0;Mov;2;79;1;-1,601879964026307;-0,8218756795136876;9,632813692129277;-1,601879964026307;-0,8218756795136876;9,632813692129277;1,4343699453718681;4,8829615161595505;3,47911008026368
12:03:20.541;0;Mov;1;80;18;0;0;0;-0,09211707347283471;0,1292031646979049;0,12322153684060945;2,3194067201757864;2,075258644367809;2,197332682271798
12:03:20.541;0;Mov;2;80;1;-1,6102541953413496;-0,8123050868633076;9,631617748039186;-1,6102541953413496;-0,8123050868633076;9,631617748039186;2,3194067201757864;2,075258644367809;2,197332682271798
12:03:20.550;0;Mov2;1;79;19;1,0144841322824794;0;1,5982909396267586;1,0144841322824794;-0,3780388865417188;1,5982909396267586;-5,127109591967528;40,98635822626423;-35,09628589739677
12:03:20.550;0;Mov2;2;79;1;-2,0648580317087313;0,5742362743003632;9,56223010193182;-2,0648580317087313;0,5742362743003632;9,56223010193182;-5,127109591967528;40,98635822626423;-35,09628589739677
12:03:20.551;0;Mov2;1;80;17;1,0144841322824794;0;1,5982909396267586;1,0144841322824794;-0,3780388865417188;1,5982909396267586;-5,127109591967528;40,98635822626423;-35,09628589739677
12:03:20.558;0;Wrist;1;80;18;1,0826746421704765;0;0;1,0826746421704765;0,00837427881394343;-0,18543046357615894;2,71614734336375;18,646809289834284;-10,010071108127079
12:03:20.559;0;Wrist;2;80;1;-8,520230910672323;0,4270882409321879;4,821192052980132;-8,520230910672323;0,4270882409321879;4,821192052980132;2,71614734336375;18,646809289834284;-10,010071108127079
12:03:20.559;0;Wrist;1;81;19;0,9319376440092166;0;0;0,9319376440092166;0,4761375953226569;-0,3553087066446425;6,317331461531419;20,11169774468215;-17,48710592974639
12:03:20.569;0;Wrist;2;81;1;-8,557316621906185;0,3900021422563097;4,758983409375286;-8,557316621906185;0,3900021422563097;4,758983409375286;6,317331461531419;20,11169774468215;-17,48710592974639
12:03:20.569;0;Wrist;1;82;19;0;0,5000640769486069;0;-0,20696432684274574;0,5000640769486069;-0,3026703874610889;20,386364329966124;10,895107882930997;-28,443250831629385
12:03:20.569;0;Wrist;2;82;1;-8,581243133335368;0,34095278786584066;4,71950437940611;-8,581243133335368;0,34095278786584066;4,71950437940611;20,386364329966124;10,895107882930997;-28,443250831629385
12:03:20.575;0;Mov;1;81;19;0;0;0;-0,015552232615238368;0,0023926511894857296;0,1339884610230949;5,4322946867275;0,21362956633198035;1,1597033600878932
12:03:20.575;0;Mov;2;81;1;-1,6102541953413496;-0,7943602032914212;9,632813692129277;-1,6102541953413496;-0,7943602032914212;9,632813692129277;5,4322946867275;0,21362956633198035;1,1597033600878932
12:03:20.587;0;Wrist;1;83;19;-1,6329844050416578;0;-0,7871822140987884;-1,6329844050416578;0,06101260637965598;-0,7871822140987884;22,980437635425886;15,961180455946531;-30,76265755180517
12:03:20.588;0;Wrist;2;83;1;-8,61713290047914;0,2823328408249916;4,657295735801264;-8,61713290047914;0,2823328408249916;4,657295735801264;22,980437635425886;15,961180455946531;-30,76265755180517
12:03:20.602;0;Mov;1;82;19;0;0;0;0,06460158234895245;0,13997008888039034;0,04904935066506508;6,347849971007416;-1,281777397991882;0,3051850947599719
12:03:20.602;0;Mov;2;82;1;-1,6054689884258553;-0,7704336918622394;9,63640247810297;-1,6054689884258553;-0,7704336918622394;9,63640247810297;6,347849971007416;-1,281777397991882;0,3051850947599719
12:03:20.602;0;Mov;1;83;19;0;0;0;0,056227302603658026;0,19739371929074984;0,027515489261180266;4,394665364543596;-0,7019257179479355;0,45777764213995786
12:03:20.602;0;Mov;2;83;1;-1,6030762657551805;-0,7536851100192267;9,637599375896482;-1,6030762657551805;-0,7536851100192267;9,637599375896482;4,394665364543596;-0,7019257179479355;0,45777764213995786
12:03:20.616;0;Wrist;1;84;19;-1,9320657979064302;0;-1,0731041091265603;-1,9320657979064302;0,19978636745334483;-1,0731041091265603;16,693624683370466;12,115848261970886;-24,872585222937712
12:03:20.617;0;Wrist;2;84;1;-8,643452253791924;0,23567614949873347;4,6106386570329905;-8,643452253791924;0,23567614949873347;4,6106386570329905;16,693624683370466;12,115848261970886;-24,872585222937712
12:03:20.617;0;Wrist;1;85;18;-2,2455030499435407;0,5491134611423079;-1,0384106437116611;-2,2455030499435407;0,5491134611423079;-1,0384106437116611;12,237922299874874;-1,0376293221839046;-21,454512161626027
12:03:20.617;0;Wrist;2;85;2;-8,647041039765618;0,19500107112815485;4,605853450117496;-8,647041039765618;0,19500107112815485;4,605853450117496;12,237922299874874;-1,0376293221839046;-21,454512161626027
12:03:20.630;0;Mov;1;84;18;0;0;0;0,12800683316579944;0,12681051653530992;0,04426404688906713;2,1362956633198036;0,45777764213995786;-0,030518509475997192
12:03:20.631;0;Mov;2;84;1;-1,6030762657551805;-0,7512924469550157;9,637599375896482;-1,6030762657551805;-0,7512924469550157;9,637599375896482;2,1362956633198036;0,45777764213995786;-0,030518509475997192
12:03:20.639;0;Mov2;2;80;3;-2,3184790051728874;0,5730399725714896;9,503610721152379;-2,3184790051728874;0,5730399725714896;9,503610721152379;11,291848506118962;78,1884212775048;-35,706656086916716
12:03:20.639;0;Mov2;1;81;17;2,2275581663716544;-1,3219397564622943;1,8662678914761803;2,2275581663716544;-1,3219397564622943;1,8662678914761803;11,291848506118962;78,1884212775048;-35,706656086916716
12:03:20.640;0;Mov2;2;81;3;-2,8651997436445202;0,6041444135868405;9,35167718283639;-2,8651997436445202;0,6041444135868405;9,35167718283639;10,681478316599017;170,59846797082432;-34,7911008026368
12:03:20.640;0;Mov2;1;82;16;4,213458853419599;1,594702034440138;1,7203162194433423;4,213458853419599;1,594702034440138;1,7203162194433423;10,681478316599017;170,59846797082432;-34,7911008026368
12:03:20.641;0;Mov2;2;82;3;-3,4777183885464034;0,3888058107242042;9,15308751945555;-3,4777183885464034;0,3888058107242042;9,15308751945555;-79,53123569444868;204,5350505081332;-31,28147221289712
12:03:20.641;0;Mov2;1;83;17;6,61807325205237;9,0872896130253;9,748857463301492;6,61807325205237;9,0872896130253;9,748857463301492;-79,53123569444868;204,5350505081332;-31,28147221289712
12:03:20.647;0;Wrist;1;86;18;-2,2227729594561603;0,9271523178807947;-0,774022656655324;-2,2227729594561603;0,9271523178807947;-0,774022656655324;8,362071596423231;-7,904293954283273;-17,242957853938414
12:03:20.647;0;Wrist;2;86;1;-8,637470625934629;0,16270028367908262;4,624994754631183;-8,637470625934629;0,16270028367908262;4,624994754631183;8,362071596423231;-7,904293954283273;-17,242957853938414
12:03:20.662;0;Mov;1;85;19;0;0;0;0,08135014183954131;0,015552232615238368;0,04426404688906713;1,0681478316599018;2,9297769096957307;-0,4882961516159551
12:03:20.662;0;Mov;2;85;1;-1,6174322441404463;-0,7477034821619312;9,63640247810297;-1,6174322441404463;-0,7477034821619312;9,63640247810297;1,0681478316599018;2,9297769096957307;-0,4882961516159551
12:03:20.662;0;Mov;1;86;19;0;0;0;0,03349711525577372;0,13997008888039034;0,038282419031771674;0,8239997558519242;4,364146855067599;-0,36622211371196634
12:03:20.662;0;Mov;2;86;1;-1,6329844050416578;-0,7429182156399732;9,634009636219368;-1,6329844050416578;-0,7429182156399732;9,634009636219368;0,8239997558519242;4,364146855067599;-0,36622211371196634
12:03:20.675;0;Wrist;1;87;19;-1,670070473914304;0,7632557026696066;-1,06472975859859;-1,670070473914304;0,7632557026696066;-1,06472975859859;5,340739158299509;-9,063997314371166;-7,110812707907346
12:03:20.690;0;Mov;1;87;19;0;0;0;-0,04187139500106815;0,010766930701942408;0,0011963255947428648;2,0142216254158147;4,821924497207556;-0,09155552842799158
12:03:20.690;0;Mov;2;87;1;-1,6497329868846706;-0,7369365877826777;9,631617748039186;-1,6497329868846706;-0,7369365877826777;9,631617748039186;2,0142216254158147;4,821924497207556;-0,09155552842799158
12:03:20.698;0;Mov2;1;85;19;14,495877140110476;5,815338698232979;0;14,495877140110476;5,815338698232979;0,19380473959604938;-28,870509964293344;-7,019257179479355;7,049775688955352
12:03:20.699;0;Mov2;2;85;1;-3,621277457121494;-0,12202521275931195;9,105234496597186;-3,621277457121494;-0,12202521275931195;9,105234496597186;-28,870509964293344;-7,019257179479355;7,049775688955352
12:03:20.699;0;Mov2;1;86;18;12,992095706045717;3,9598376415295875;3,0422559759056367;12,992095706045717;3,9598376415295875;3,0422559759056367;12,329477828302865;-29,297769096957303;14,1300698873867
12:03:20.699;0;Mov2;2;86;1;-3,4860928582873014;-0,06340525826765496;9,157872249519334;-3,4860928582873014;-0,06340525826765496;9,157872249519334;12,329477828302865;-29,297769096957303;14,1300698873867
12:03:20.699;0;Mov2;1;87;19;11,59119884334849;2,6785730975524156;1,9847041468932158;11,59119884334849;2,6785730975524156;1,9847041468932158;22,705771050141912;-73,27494125186927;15,900143436994536
12:03:20.700;0;Mov2;2;87;1;-3,219312208166753;0,028711815205179753;9,254775193029573;-3,219312208166753;0,028711815205179753;9,254775193029573;22,705771050141912;-73,27494125186927;15,900143436994536
12:03:20.706;0;Wrist;2;87;1;-8,625507370220038;0,1507370279644917;4,646528424176763;-8,625507370220038;0,1507370279644917;4,646528424176763;5,340739158299509;-9,063997314371166;-7,110812707907346
12:03:20.706;0;Wrist;1;88;19;-0,8553727835932493;0,6567827625736259;-1,076693014313181;-0,8553727835932493;0,6567827625736259;-1,076693014313181;-0,6103701895199438;-13,000885036774804;6,0121463667714465
12:03:20.706;0;Wrist;2;88;1;-8,60516964476455;0,16987822816686757;4,683614612262337;-8,60516964476455;0,16987822816686757;4,683614612262337;-0,6103701895199438;-13,000885036774804;6,0121463667714465
12:03:20.707;0;Wrist;1;89;19;0;0,7058320871608631;-0,8099124237990967;-0,43546250205046233;0,7058320871608631;-0,8099124237990967;-3,2349620044557024;-14,435254982146672;15,167699209570605
12:03:20.707;0;Wrist;2;89;1;-8,581243133335368;0,2129459547000412;4,727878849147007;-8,581243133335368;0,2129459547000412;4,727878849147007;-3,2349620044557024;-14,435254982146672;15,167699209570605
12:03:20.720;0;Mov;1;88;19;0;0;0;-0,04306772280776963;-0,08613544561553926;-0,0358897671437727;2,7466658528397474;4,272591326639607;0,18311105685598317
12:03:20.721;0;Mov;2;88;1;-1,6640888460570087;-0,7297585985900449;9,629224906155583;-1,6640888460570087;-0,7297585985900449;9,629224906155583;2,7466658528397474;4,272591326639607;0,18311105685598317
12:03:20.721;0;Mov;1;89;18;0;0;0;0,0011963255947428648;-0,04426404688906713;-0,07895748622613834;2,166814172795801;3,9063692129276406;0,7324442274239327
12:03:20.721;0;Mov;2;89;1;-1,6772485227134006;-0,7213843076685384;9,628028008362072;-1,6772485227134006;-0,7213843076685384;9,628028008362072;2,166814172795801;3,9063692129276406;0,7324442274239327
12:03:20.728;0;Mov2;1;88;19;9,4629352702414;0;0,5467207980780968;9,4629352702414;0,020337535459885328;0,5467207980780968;24,903103732413708;-108,95107882930998;18,37214270455031
12:03:20.728;0;Mov2;2;88;1;-2,8460586775566883;0,11125828112601856;9,376799638355664;-2,8460586775566883;0,11125828112601856;9,376799638355664;24,903103732413708;-108,95107882930998;18,37214270455031
12:03:20.728;0;Mov2;1;89;18;7,69356984542375;-2,819739324243904;2,4428967692342907;7,69356984542375;-2,819739324243904;2,4428967692342907;20,477919858394117;-131,4737388225959;13,306070131534776
12:03:20.735;0;Wrist;1;90;18;0;0,6173040306367688;-1,003717178296762;0,07536851398224585;0,6173040306367688;-1,003717178296762;-3,2349620044557024;-10,284737693411055;19,77599414044618
12:03:20.736;0;Wrist;2;90;1;-8,563298249763482;0,26917325357829525;4,756590567491684;-8,563298249763482;0,26917325357829525;4,756590567491684;-3,2349620044557024;-10,284737693411055;19,77599414044618
12:03:20.736;0;Wrist;1;91;19;0;0;-1,2537492465742972;0,48690451950514235;0,3421491193979461;-1,2537492465742972;-3,845332193975646;-8,392590105899227;20,41688283944212
12:03:20.750;0;Mov;1;90;19;0;0;0;0,09092074194072924;-0,06819056204365291;-0,20696432684274574;1,3428144169438765;4,364146855067599;1,4343699453718681
12:03:20.750;0;Mov;2;90;1;-1,6916043818857387;-0,7165990411465804;9,625636120181891;-1,6916043818857387;-0,7165990411465804;9,625636120181891;1,3428144169438765;4,364146855067599;1,4343699453718681
12:03:20.758;0;Mov2;2;89;1;-2,3854733325449384;0,16150395214697713;9,502413823358868;-2,3854733325449384;0,16150395214697713;9,502413823358868;20,477919858394117;-131,4737388225959;13,306070131534776
12:03:20.758;0;Mov2;1;90;19;5,15855605487228;-2,4799829573198644;4,601068243202002;5,15855605487228;-2,4799829573198644;4,601068243202002;18,70784630878628;-144,13892025513474;-0,640888698995941
12:03:20.758;0;Mov2;2;90;1;-1,8901944029053621;0,21773125102523117;9,612475966673788;-1,8901944029053621;0,21773125102523117;9,612475966673788;18,70784630878628;-144,13892025513474;-0,640888698995941
12:03:20.766;0;Wrist;2;91;1;-8,548943105868709;0,32300790429395426;4,779320657979064;-8,548943105868709;0,32300790429395426;4,779320657979064;-3,845332193975646;-8,392590105899227;20,41688283944212
12:03:20.766;0;Wrist;1;92;19;0;0;-1,4475539414654988;0,4773339268547624;0,052638326634361556;-1,4475539414654988;-4,699850459303567;-8,667256691183203;17,700735496078373
12:03:20.766;0;Wrist;2;92;1;-8,534587008270517;0,3660756308271279;4,800854804376354;-8,534587008270517;0,3660756308271279;4,800854804376354;-4,699850459303567;-8,667256691183203;17,700735496078373
12:03:20.781;0;Mov;1;91;19;0;0;0;0,11245460520731605;-0,03708609495047418;-0,19021577480296487;0,061037018951994385;6,225775933103427;2,563554795983764
12:03:20.781;0;Mov;2;91;1;-1,7131382898571734;-0,7154026798112431;9,622046380504775;-1,7131382898571734;-0,7154026798112431;9,622046380504775;0,061037018951994385;6,225775933103427;2,563554795983764
12:03:20.781;0;Mov;1;92;19;0;0;0;0,040675070919770656;0,06460158234895245;-0,05503097852236053;-1,8005920590838342;7,965330973235267;3,5401470992156745
12:03:20.782;0;Mov;2;92;1;-1,740653706472976;-0,717795342875454;9,61606475264748;-1,740653706472976;-0,717795342875454;9,61606475264748;-1,8005920590838342;7,965330973235267;3,5401470992156745
12:03:20.790;0;Mov2;1;91;19;2,209613282799768;-1,0216620618686483;5,330826841792047;2,209613282799768;-1,0216620618686483;5,330826841792047;18,127994628742332;-158,23847163304544;-9,857478560747094
12:03:20.790;0;Mov2;2;91;1;-1,3590258253349405;0,2799401777607807;9,701004440443128;-1,3590258253349405;0,2799401777607807;9,701004440443128;18,127994628742332;-158,23847163304544;-9,857478560747094
12:03:20.791;0;Mov2;1;92;19;0;0;3,961034062471389;-0,2560136663315989;0,4007690664387951;3,961034062471389;25,147251808221686;-172,49061555833612;-6,988738670003357
12:03:20.791;0;Mov2;2;92;1;-0,783593249305704;0,37564622347750787;9,760820719016083;-0,783593249305704;0,37564622347750787;9,760820719016083;25,147251808221686;-172,49061555833612;-6,988738670003357
12:03:20.795;0;Wrist;1;93;19;0;0;-1,5540269411679433;0,2823328408249916;-0,1866267951082644;-1,5540269411679433;-5,615405743583484;-7,629627368999298;12,93984801782281
12:03:20.796;0;Wrist;2;93;1;-8,522623752555925;0,3935911070493942;4,8199956320383315;-8,522623752555925;0,3935911070493942;4,8199956320383315;-5,615405743583484;-7,629627368999298;12,93984801782281
12:03:20.797;0;Wrist;1;94;18;0;0;-1,5911130100405897;0,0466566987770661;-0,19380473959604938;-1,5911130100405897;-5,584887234107486;-7,660145878475295;7,4159978026673175
12:03:20.797;0;Wrist;2;94;1;-8,511856440931425;0,4055543627639851;4,837940515610217;-8,511856440931425;0,4055543627639851;4,837940515610217;-5,584887234107486;-7,660145878475295;7,4159978026673175
12:03:20.814;0;Mov;1;93;19;0;0;0;0,0466566987770661;0,04904935066506508;-0,04426404688906713;-2,0142216254158147;8,880886257515183;3,814813684499649
12:03:20.814;0;Mov;2;93;1;-1,7717581474883266;-0,7213843076685384;9,610083124790185;-1,7717581474883266;-0,7213843076685384;9,610083124790185;-2,0142216254158147;8,880886257515183;3,814813684499649
12:03:20.817;0;Mov2;1;93;18;-2,302926725058748;1,1783806878872036;2,781456953642384;-2,302926725058748;1,1783806878872036;2,781456953642384;29,328287606433303;-173,74187444685202;4,66933194982757
12:03:20.818;0;Mov2;2;93;1;-0,20457167868015075;0,4881008510372478;9,784747230445266;-0,20457167868015075;0,4881008510372478;9,784747230445266;29,328287606433303;-173,74187444685202;4,66933194982757
12:03:20.825;0;Wrist;1;95;19;0;0;-1,575560849139378;-0,34932707878734703;0,00598162785729545;-1,575560849139378;-5,920590838343455;-9,88799707022309;2,044740134891812
12:03:20.826;0;Wrist;2;95;1;-8,498697241126743;0,40316172950300605;4,861867027039399;-8,498697241126743;0,40316172950300605;4,861867027039399;-5,920590838343455;-9,88799707022309;2,044740134891812
12:03:20.841;0;Mov;1;94;19;0;0;0;0,03708609495047418;0,00837427881394343;-0,040675070919770656;-0,8239997558519242;9,765923032319101;3,967406231879635
12:03:20.841;0;Mov;2;94;1;-1,8052553111743523;-0,7225806690038759;9,60410149693289;-1,8052553111743523;-0,7225806690038759;9,60410149693289;-0,8239997558519242;9,765923032319101;3,967406231879635
12:03:20.841;0;Mov;1;95;19;0;0;0;0,05144199882766007;0,03947874311306917;-0,03349711525577372;-1,1291848506118962;10,406811731315043;4,425183874019593
12:03:20.841;0;Mov;2;95;1;-1,841145078318125;-0,7225806690038759;9,596923924985504;-1,841145078318125;-0,7225806690038759;9,596923924985504;-1,1291848506118962;10,406811731315043;4,425183874019593
12:03:20.857;0;Wrist;1;96;19;-0,5239905883777887;0;-1,5935057327112643;-0,5239905883777887;0,1543260076591922;-1,5935057327112643;-4,791405987731559;-12,695699942014832;-2,4719992675557725
12:03:20.857;0;Wrist;2;96;1;-8,480752357554858;0,3888058107242042;4,894168008209479;-8,480752357554858;0,3888058107242042;4,894168008209479;-4,791405987731559;-12,695699942014832;-2,4719992675557725
12:03:20.857;0;Wrist;1;97;19;0;0;-1,6114506162831508;-0,4270882409321879;0,1890194432708594;-1,6114506162831508;-3,5096285897396773;-17,303994872890406;-5,920590838343455
12:03:20.857;0;Wrist;2;97;1;-8,454433004242073;0,3660756308271279;4,940824610126041;-8,454433004242073;0,3660756308271279;4,940824610126041;-3,5096285897396773;-17,303994872890406;-5,920590838343455
12:03:20.878;0;Mov2;1;94;19;-3,7528735084078493;0,6890835649243141;2,2383252395702993;-3,7528735084078493;0,6890835649243141;2,2383252395702993;27,83288064210944;-164,52528458510088;19,77599414044618
12:03:20.885;0;Wrist;1;98;19;0;0;-1,6664815687276833;-0,3517197120483261;0,1507370279644917;-1,6664815687276833;-3,5706656086916717;-23,621326334421827;-7,843256935331278
12:03:20.886;0;Wrist;2;98;0;-8,41734729300821;0,33736382307275614;5,006622516556291;-8,41734729300821;0,33736382307275614;5,006622516556291;-3,5706656086916717;-23,621326334421827;-7,843256935331278
12:03:20.900;0;Mov;1;96;19;0;0;0;0,10886562551261558;0,015552232615238368;-0,0717795342875454;-1,281777397991882;10,773033845027008;4,791405987731559
12:03:20.901;0;Mov;2;96;1;-1,878231147190771;-0,7237769707327494;9,589746353038118;-1,878231147190771;-0,7237769707327494;9,589746353038118;-1,281777397991882;10,773033845027008;4,791405987731559
12:03:20.901;0;Mov;1;97;19;0;0;0;0,06699423051154745;-0,007177953801294938;-0,08254646592083881;-1,8921475875118259;11,749626148258919;5,401776177251503
12:03:20.901;0;Mov;2;97;1;-1,9189062404629658;-0,727365935525834;9,58137188329722;-1,9189062404629658;-0,727365935525834;9,58137188329722;-1,8921475875118259;11,749626148258919;5,401776177251503
12:03:20.902;0;Mov;1;98;19;0;0;0;0,08015381775824382;0,040675070919770656;-0,07656483806354335;-1,922666096987823;12,634662923062837;5,7374797814874725
12:03:20.902;0;Mov;2;98;1;-1,9631703581347086;-0,7297585985900449;9,572997413556322;-1,9631703581347086;-0,7297585985900449;9,572997413556322;-1,922666096987823;12,634662923062837;5,7374797814874725
12:03:20.909;0;Mov2;2;94;1;0,3433454509300516;0,5826105652218696;9,776372760704367;0,3433454509300516;0,5826105652218696;9,776372760704367;27,83288064210944;-164,52528458510088;19,77599414044618
12:03:20.910;0;Mov2;1;95;19;-5,072420422986541;-0,9319376440092166;2,6522537442396312;-5,072420422986541;-0,9319376440092166;2,6522537442396312;27,28354747154149;-151,37180700094606;29,02310251167333
12:03:20.910;0;Mov2;2;95;1;0,8446058892139958;0,654390099509415;9,740482993560594;0,8446058892139958;0,654390099509415;9,740482993560594;27,28354747154149;-151,37180700094606;29,02310251167333
12:03:20.910;0;Mov2;1;96;19;-6,8633199942014835;-2,1174962614825894;3,8832729003265483;-6,8633199942014835;-2,1174962614825894;3,8832729003265483;31,373027741325114;-143,5285500656148;29,084139530625325
12:03:20.911;0;Mov2;2;96;1;1,3075838972899563;0,7345439247184667;9,684255500961333;1,3075838972899563;0,7345439247184667;9,684255500961333;31,373027741325114;-143,5285500656148;29,084139530625325
12:03:20.911;0;Mov2;1;97;18;-8,546550263985107;-1,936851124034852;3,9442855998413036;-8,546550263985107;-1,936851124034852;3,9442855998413036;36,28650776696066;-144,7798089541307;25,513473921933652
12:03:20.931;0;Mov;1;99;19;0;0;0;0,1435590685750908;0;-0,08972441785943175;-1,3428144169438765;13,641773735770744;5,4322946867275
12:03:20.931;0;Mov;2;99;1;-2,008630777535325;-0,7309549599253823;9,563426999725333;-2,008630777535325;-0,7309549599253823;9,563426999725333;-1,3428144169438765;13,641773735770744;5,4322946867275
12:03:20.939;0;Mov2;1;99;19;-10,63533433027131;-3,307840205084384;0,7871822140987884;-10,63533433027131;-3,307840205084384;0,7871822140987884;40,86428418836024;-141,81951353495896;44,068727683339944
12:03:20.939;0;Mov2;2;99;1;2,6797692800683617;1,0240546653263956;9,369622066408276;2,6797692800683617;1,0240546653263956;9,369622066408276;40,86428418836024;-141,81951353495896;44,068727683339944
12:03:20.946;0;Wrist;1;99;19;-0,5550950889996032;0;-1,628199078913236;-0,5550950889996032;0,14714804826979125;-1,628199078913236;-6,561479537339396;-25,75762199774163;-8,178960539567248
12:03:20.962;0;Mov;1;100;20;0;0;0;0,1961974026602603;-0,056227302603658026;-0,13518479255520036;-1,3122959074678793;14,89303262428663;5,249183629871517
12:03:20.962;0;Mov;2;100;1;-2,058876403851436;-0,7321512616542558;9,552659688100833;-2,058876403851436;-0,7321512616542558;9,552659688100833;-1,3122959074678793;14,89303262428663;5,249183629871517
12:03:20.962;0;Mov;1;101;19;0;0;0;0,20217903051755579;0,026319163317180778;-0,12322153684060945;-1,2512588885158848;16,3274025696585;5,127109591967528
12:03:20.962;0;Mov;2;101;1;-2,113907237083041;-0,7321512616542558;9,540696432386243;-2,113907237083041;-0,7321512616542558;9,540696432386243;-1,2512588885158848;16,3274025696585;5,127109591967528
12:03:20.968;0;Mov2;1;100;20;-12,33770542771691;-3,739713831751457;-1,7669729405728325;-12,33770542771691;-3,739713831751457;-1,7669729405728325;43,03109836115604;-136,20410779137546;51,66783654286325
12:03:20.969;0;Mov2;2;100;1;3,1032686754203924;1,1006195257423628;9,22965178380688;3,1032686754203924;1,1006195257423628;9,22965178380688;43,03109836115604;-136,20410779137546;51,66783654286325
12:03:20.969;0;Mov2;1;101;19;-13,094980277413251;-4,810425218207342;-7,68280301065096;-13,094980277413251;-4,810425218207342;-7,68280301065096;21,881771294289987;-118,86959440900907;40,65065462202826
12:03:20.969;0;Mov2;2;101;1;3,4801112304300057;1,1089938762703329;9,093271240882595;3,4801112304300057;1,1089938762703329;9,093271240882595;21,881771294289987;-118,86959440900907;40,65065462202826
12:03:20.976;0;Wrist;2;99;1;-8,375475898007142;0,3026703874610889;5,077205629902036;-8,375475898007142;0,3026703874610889;5,077205629902036;-6,561479537339396;-25,75762199774163;-8,178960539567248
12:03:20.977;0;Wrist;1;100;19;-0,7165990411465804;0;-1,5301004297387615;-0,7165990411465804;0,24285409398651844;-1,5301004297387615;-10,193182164983062;-25,177770317697682;-6,591998046815394
12:03:20.977;0;Wrist;2;100;1;-8,334800447096164;0,26558428878521073;5,146592799157689;-8,334800447096164;0,26558428878521073;5,146592799157689;-10,193182164983062;-25,177770317697682;-6,591998046815394
12:03:20.977;0;Wrist;1;101;19;-0,6986541575746941;0;-1,5277078262810144;-0,6986541575746941;0,3421491193979461;-1,5277078262810144;-12,756736960966826;-25,54399243140965;-2,7466658528397474
12:03:20.985;0;Wrist;2;101;1;-8,291733108005005;0,236872466129223;5,217175912503433;-8,291733108005005;0,236872466129223;5,217175912503433;-12,756736960966826;-25,54399243140965;-2,7466658528397474
12:03:20.997;0;Mov;1;102;19;0;0;0;0,17825251908837397;0,2273018585772271;-0,02273018548518231;-0,7019257179479355;17,212439344462418;3,9063692129276406
12:03:20.997;0;Mov;2;102;1;-2,1725273331400494;-0,7285622968611714;9,52753723258156;-2,1725273331400494;-0,7285622968611714;9,52753723258156;-0,7019257179479355;17,212439344462418;3,9063692129276406
12:03:20.997;0;Mov2;1;102;18;-14,123820268868068;-5,530613402966399;-6,645588549455245;-14,123820268868068;-5,530613402966399;-6,645588549455245;29,145176549577318;-69,5516830957976;12,878810998870815
12:03:20.997;0;Mov2;2;102;1;3,6643452730643635;1,1664174321726126;9,013117236854152;3,6643452730643635;1,1664174321726126;9,013117236854152;29,145176549577318;-69,5516830957976;12,878810998870815
12:03:21.021;0;Mov;1;103;20;0;0;0;0,13757744071779535;0,3134373116435743;0;3,204443494979705;16,84621723075045;1,2207403790398876
12:03:21.022;0;Mov;2;103;1;-2,2287545873134555;-0,7154026798112431;9,51557397686697;-2,2287545873134555;-0,7154026798112431;9,51557397686697;3,204443494979705;16,84621723075045;1,2207403790398876
12:03:21.022;0;Mov;1;104;19;0;0;0;0,14595171673768578;0,2631916257209998;0,04904935066506508;14,496292001098666;14,374217963194678;-0,8239997558519242
12:03:21.022;0;Mov;2;104;1;-2,275411189230018;-0,6663533552240058;9,508395451216163;-2,275411189230018;-0,6663533552240058;9,508395451216163;14,496292001098666;14,374217963194678;-0,8239997558519242
12:03:21.029;0;Mov2;1;103;19;-14,913395146031068;-2,5158727244636374;-6,985344916379284;-14,913395146031068;-2,5158727244636374;-6,985344916379284;42,3291726432081;-23,346659749137853;-11,84118167668691
12:03:21.029;0;Mov2;2;103;1;3,6918608088930935;1,3339030121768853;8,97842341380047;3,6918608088930935;1,3339030121768853;8,97842341380047;42,3291726432081;-23,346659749137853;-11,84118167668691
12:03:21.029;0;Mov2;1;104;19;-9,31937620166631;-1,4786583824808497;-17,580004272591328;-9,31937620166631;-1,4786583824808497;-17,580004272591328;-1,73955504013184;63,753166295358135;-15,533921323282572
12:03:21.029;0;Mov2;2;104;1;3,533945881145665;1,3674001758629108;9,037043748283335;3,533945881145665;1,3674001758629108;9,037043748283335;-1,73955504013184;63,753166295358135;-15,533921323282572
12:03:21.035;0;Wrist;1;104;19;-1,2214483846171453;0;-1,6473403834269233;-1,2214483846171453;0,468959635933256;-1,6473403834269233;-19,043549913022247;-15,10666219061861;11,047700430310984
12:03:21.036;0;Wrist;2;104;1;-8,205597476119266;0,20337534714804528;5,353556932279427;-8,205597476119266;0,20337534714804528;5,353556932279427;-19,043549913022247;-15,10666219061861;11,047700430310984
12:03:21.052;0;Mov;1;105;19;0;0;0;0,01794488357188635;-0,15193334459498123;0,1794488357188635;24,53688161870174;16,113773003326518;-0,7019257179479355
12:03:21.052;0;Mov;2;105;1;-2,3292458399456772;-0,588592193079165;9,500021935178687;-2,3292458399456772;-0,588592193079165;9,500021935178687;24,53688161870174;16,113773003326518;-0,7019257179479355
12:03:21.059;0;Mov2;1;105;19;5,450459398937956;3,3425337897122103;4,233796102023377;5,450459398937956;3,3425337897122103;4,233796102023377;-83,31553086947234;112,33863338114567;-25,940733054597615
12:03:21.059;0;Mov2;2;105;1;3,2097415559099094;1,1472762468718527;9,18658444471572;3,2097415559099094;1,1472762468718527;9,18658444471572;-83,31553086947234;112,33863338114567;-25,940733054597615
12:03:21.066;0;Wrist;1;105;19;-1,2226448055589465;0;-1,577953452597125;-1,2226448055589465;0,4581927117507706;-1,577953452597125;-18,433179723502302;-20,050660725730154;14,313180944242683
12:03:21.081;0;Mov;1;106;18;0;0;0;0,13997008888039034;0,01794488357188635;0,23089083827192755;22,003845332193976;16,602069154942473;1,3122959074678793
12:03:21.081;0;Mov;2;106;1;-2,383080490661336;-0,5132236939985351;9,491647465437788;-2,383080490661336;-0,5132236939985351;9,491647465437788;22,003845332193976;16,602069154942473;1,3122959074678793
12:03:21.081;0;Mov;1;107;19;0;0;0;0,031104465230476736;0,0837427900021363;0,48929718256935334;21,546067690054016;13,824884792626728;3,8758507034516434
12:03:21.081;0;Mov;2;107;1;-2,429737331003754;-0,43665883358256785;9,48327299569689;-2,429737331003754;-0,43665883358256785;9,48327299569689;21,546067690054016;13,824884792626728;3,8758507034516434
12:03:21.091;0;Mov2;1;106;19;-1,6246101737266152;6,84896389660329;-4,086648247474593;-1,6246101737266152;6,84896389660329;-4,086648247474593;-131,3516647846919;150,48677022614214;-22,06488235114597
12:03:21.092;0;Mov2;2;106;1;2,6773766766106144;0,7979491680845058;9,392352633747368;2,6773766766106144;0,7979491680845058;9,392352633747368;-131,3516647846919;150,48677022614214;-22,06488235114597
12:03:21.092;0;Mov2;1;107;18;-3,761247739722892;2,8963043038727987;4,943217452009644;-3,761247739722892;2,8963043038727987;4,943217452009644;-107,11996826075014;164,95254371776483;11,444441053498947
12:03:21.092;0;Mov2;2;107;1;2,0792138908810696;0,40435806103511157;9,568211729789118;2,0792138908810696;0,40435806103511157;9,568211729789118;-107,11996826075014;164,95254371776483;11,444441053498947
12:03:21.096;0;Wrist;2;105;1;-8,169707708975494;0,21174962316793572;5,406195162053285;-8,169707708975494;0,21174962316793572;5,406195162053285;-18,433179723502302;-20,050660725730154;14,313180944242683
12:03:21.097;0;Wrist;1;106;18;-1,2860499893185218;0;-1,2728904318750571;-1,2860499893185218;0,415124985217597;-1,2728904318750571;-15,015106662190618;-21,820734275337994;16,876735740226447
12:03:21.099;0;Wrist;1;107;19;-1,4714804528946805;0;-0,6041444135868405;-1,4714804528946805;0,3289895321512497;-0,6041444135868405;-14,374217963194678;-16,449476607562488;19,98962370677816
12:03:21.099;0;Wrist;2;107;1;-8,096731276894436;0,26199529418889433;5,512668519394513;-8,096731276894436;0,26199529418889433;5,512668519394513;-14,374217963194678;-16,449476607562488;19,98962370677816
12:03:21.099;0;Wrist;1;108;19;-1,8590899618900112;0;0;-1,8590899618900112;0,03708609495047418;-0,30745568378627885;-13,245033112582782;-0,8545182653279214;23,56028931546983
12:03:21.099;0;Wrist;2;108;1;-8,095535332804346;0,3014740559289834;5,512668519394513;-8,095535332804346;0,3014740559289834;5,512668519394513;-13,245033112582782;-0,8545182653279214;23,56028931546983
12:03:21.115;0;Mov;1;108;19;0,7704336918622394;0;0;0,7704336918622394;0,2990813928647725;0,43187353725737787;20,32532731101413;17,883846552934354;5,340739158299509
12:03:21.115;0;Mov;2;108;1;-2,4823755607776117;-0,3624866660340434;9,47250568407239;-2,4823755607776117;-0,3624866660340434;9,47250568407239;20,32532731101413;17,883846552934354;5,340739158299509
12:03:21.119;0;Mov2;1;108;19;-1,04558857329783;-8,492715613269448;3,6356335547196874;-1,04558857329783;-8,492715613269448;3,6356335547196874;-47,73094882045961;164,73891415143285;33,17361980040895
12:03:21.119;0;Mov2;2;108;1;1,5348857558671833;0,11006195704472106;9,677077929013947;1,5348857558671833;0,11006195704472106;9,677077929013947;-47,73094882045961;164,73891415143285;33,17361980040895
12:03:21.127;0;Wrist;1;110;19;-2,1174962614825894;-0,874514028500473;1,303994872890408;-2,1174962614825894;-0,874514028500473;1,303994872890408;-4,150517288735618;19,196142460402235;27,344584490493485
12:03:21.128;0;Wrist;2;110;1;-8,14219241157262;0,41153599062128055;5,437299722281564;-8,14219241157262;0,41153599062128055;5,437299722281564;-4,150517288735618;19,196142460402235;27,344584490493485
12:03:21.150;0;Mov2;1;109;19;-2,1629566808832057;-6,415894325846126;5,424140045625172;-2,1629566808832057;-6,415894325846126;5,424140045625172;-25,45243690298166;159,70336008789332;13,91644032105472
12:03:21.150;0;Mov2;2;109;1;0,9666311094241157;0,007177953801294938;9,751250305185096;0,9666311094241157;0,007177953801294938;9,751250305185096;-25,45243690298166;159,70336008789332;13,91644032105472
12:03:21.150;0;Mov2;1;110;19;-4,32471694082461;2,337620309686575;8,22234546189764;-4,32471694082461;2,337620309686575;8,22234546189764;-2,5940733054597613;137,42484817041534;10,65095980712302
12:03:21.150;0;Mov2;2;110;1;0,45580004868655966;0,06579790643024995;9,788336016418958;0,45580004868655966;0,06579790643024995;9,788336016418958;-2,5940733054597613;137,42484817041534;10,65095980712302
12:03:21.157;0;Wrist;1;111;19;-2,0839990977965637;-1,4140568969924008;0,7189917042107914;-2,0839990977965637;-1,4140568969924008;0,7189917042107914;6,927701651051363;30,915250099185155;28,290658284249396
12:03:21.157;0;Wrist;2;111;1;-8,19961584826197;0,4964751121555223;5,342790097506637;-8,19961584826197;0,4964751121555223;5,342790097506637;6,927701651051363;30,915250099185155;28,290658284249396
12:03:21.158;0;Wrist;1;112;19;-1,4463576397366253;-1,0336253175832393;0,5084383678701132;-1,4463576397366253;-1,0336253175832393;0,5084383678701132;21,17984557634205;28,59584337900937;30,060731833857233
12:03:21.158;0;Wrist;2;112;1;-8,246271973326822;0,6220892971587267;5,256654465620899;-8,246271973326822;0,6220892971587267;5,256654465620899;21,17984557634205;28,59584337900937;30,060731833857233
12:03:21.171;0;Mov;1;109;19;1,7035676376003297;0;0;1,7035676376003297;0,026319163317180778;-0,19380473959604938;30,365916928617207;22,888882106997894;1,8311105685598315
12:03:21.171;0;Mov;2;109;1;-2,546977284691916;-0,26199529418889433;9,458150540177618;-2,546977284691916;-0,26199529418889433;9,458150540177618;30,365916928617207;22,888882106997894;1,8311105685598315
12:03:21.171;0;Mov;1;110;18;1,5049776165807063;0;0,7154026798112431;1,5049776165807063;-0,007177953801294938;0,7154026798112431;50,59968871120334;20,29480880153813;10,52888576921903
12:03:21.172;0;Mov;2;110;1;-2,6091861667226173;-0,0837427900021363;9,444990386669515;-2,6091861667226173;-0,0837427900021363;9,444990386669515;50,59968871120334;20,29480880153813;10,52888576921903
12:03:21.172;0;Mov;1;111;19;2,180901564455092;0;1,1472762468718527;2,180901564455092;-0,2715659166425062;1,1472762468718527;54,47553941465499;63,53953672902615;11,871700186162908
12:03:21.181;0;Mov2;1;111;19;-3,3186072782830287;0,6173040306367688;5,777056089205603;-3,3186072782830287;0,6173040306367688;5,777056089205603;9,704886013367107;92,74575029755546;20,41688283944212
12:03:21.182;0;Mov2;2;111;1;0,13039949623001038;0,08733176969683676;9,797906430249947;0,13039949623001038;0,08733176969683676;9,797906430249947;9,704886013367107;92,74575029755546;20,41688283944212
12:03:21.186;0;Wrist;1;113;18;-1,2752830353328044;0;0,9259560161519211;-1,2752830353328044;-0,117239908983314;0,9259560161519211;34,424878688924835;16,876735740226447;29,145176549577318
12:03:21.186;0;Wrist;2;113;1;-8,267806596575824;0,774022656655324;5,201623870815149;-8,267806596575824;0,774022656655324;5,201623870815149;34,424878688924835;16,876735740226447;29,145176549577318
12:03:21.200;0;Mov;1;112;20;1,3877376628925444;-0,8493911557359538;2,6654134208960234;1,3877376628925444;-0,8493911557359538;2,6654134208960234;55,726798303170874;123,99670400097659;0,4272591326639607
12:03:21.200;0;Mov;2;112;1;-3,206152531510361;0,2787438760319071;9,255971137119664;-3,206152531510361;0,2787438760319071;9,255971137119664;55,726798303170874;123,99670400097659;0,4272591326639607
12:03:21.201;0;Mov;1;113;19;2,6259346293527024;-0,6687460182882168;4,518521874141667;2,6259346293527024;-0,6687460182882168;4,518521874141667;50,0198370311594;224,79934080019532;-17,15140232551042
12:03:21.201;0;Mov;2;113;1;-3,9024142048402357;0,415124985217597;8,979620311593981;-3,9024142048402357;0,415124985217597;8,979620311593981;50,0198370311594;224,79934080019532;-17,15140232551042
12:03:21.208;0;Mov2;1;112;19;-1,3027985711615344;-0,6795129126674703;2,1163000789666433;-1,3027985711615344;-0,6795129126674703;2,1163000789666433;15,533921323282572;54,93331705679495;17,242957853938414
12:03:21.208;0;Mov2;2;112;1;-0,0478530228583636;0,1292031646979049;9,797906430249947;-0,0478530228583636;0,1292031646979049;9,797906430249947;15,533921323282572;54,93331705679495;17,242957853938414
12:03:21.208;0;Mov2;1;113;19;0;-0,522794286648915;0,8481948540070803;-0,1531296761270867;-0,522794286648915;0,8481948540070803;22,461622974333935;43,24472792748802;11,993774224066897
12:03:21.208;0;Mov2;2;113;1;-0,19021577480296487;0,20696432684274574;9,795513588366344;-0,19021577480296487;0,20696432684274574;9,795513588366344;22,461622974333935;43,24472792748802;11,993774224066897
12:03:21.215;0;Wrist;1;114;20;-0,9630420850245675;0,5826105652218696;1,1759880844294566;-0,9630420850245675;0,5826105652218696;1,1759880844294566;35,493026520584735;12,909329508346813;28,839991454817348
12:03:21.215;0;Wrist;2;114;1;-8,279769852290414;0,9295449809450056;5,157359633930479;-8,279769852290414;0,9295449809450056;5,157359633930479;35,493026520584735;12,909329508346813;28,839991454817348
12:03:21.215;0;Wrist;1;115;19;0;1,2142704550309762;1,1209571319849239;0,3062593522541734;1,2142704550309762;1,1209571319849239;20,813623462630087;12,39051484725486;30,701620532853177
12:03:21.230;0;Mov;1;114;20;2,5984190935239724;0;7,691177480391858;2,5984190935239724;-0,1387737722499008;7,691177480391858;56,27613147373882;374,0043336283456;-26,21539963988159
12:03:21.230;0;Mov;2;114;1;-5,020978614154485;0,5467207980780968;8,39700956755272;-5,020978614154485;0,5467207980780968;8,39700956755272;56,27613147373882;374,0043336283456;-26,21539963988159
12:03:21.237;0;Mov2;1;114;19;0;0;0;0,3337748284764397;0,39957273490668965;0,1890194432708594;6,469924008911405;46,93746757408368;11,139255958738975
12:03:21.238;0;Mov2;2;114;1;-0,3469344157231361;0,239265114291818;9,790728858302561;-0,3469344157231361;0,239265114291818;9,790728858302561;6,469924008911405;46,93746757408368;11,139255958738975
12:03:21.245;0;Wrist;2;115;1;-8,28575148014771;1,06472975859859;5,121469866786706;-8,28575148014771;1,06472975859859;5,121469866786706;20,813623462630087;12,39051484725486;30,701620532853177
12:03:21.247;0;Wrist;1;116;18;2,024182819223609;1,4260201527069918;0,9594531202314829;2,024182819223609;1,4260201527069918;0,9594531202314829;0,5798516800439466;9,735404522843105;29,99969481490524
12:03:21.247;0;Wrist;2;116;1;-8,284554582354199;1,1616321060441908;5,102328562273018;-8,284554582354199;1,1616321060441908;5,102328562273018;0,5798516800439466;9,735404522843105;29,99969481490524
12:03:21.261;0;Mov;1;115;19;4,949199079866939;-0,9797906668675802;6,336936742759484;4,949199079866939;-0,9797906668675802;6,336936742759484;27,008880886257515;569,7500534073915;-39,49095126194037
12:03:21.261;0;Mov;2;115;1;-6,566630966368603;0,532364879299295;7,25451816995758;-6,566630966368603;0,532364879299295;7,25451816995758;27,008880886257515;569,7500534073915;-39,49095126194037
12:03:21.261;0;Mov;1;116;19;1,7059602410580768;-0,9773980038033693;6,372826509903256;1,7059602410580768;-0,9773980038033693;6,372826509903256;-34,33332316049684;680,3491317484054;-32,34962004455702
12:03:21.262;0;Mov;2;116;1;-8,097928174687949;0,3660756308271279;5,506686891537218;-8,097928174687949;0,3660756308271279;5,506686891537218;-34,33332316049684;680,3491317484054;-32,34962004455702
12:03:21.270;0;Mov2;1;115;19;0;-0,5024567400128178;0,7931638419560839;-0,025122837373181287;-0,5024567400128178;0,7931638419560839;-8,14844203009125;48,432874538407546;5,951109347819452
12:03:21.270;0;Mov2;2;115;1;-0,5168126587916196;0,20337534714804528;9,783550332651753;-0,5168126587916196;0,20337534714804528;9,783550332651753;-8,14844203009125;48,432874538407546;5,951109347819452
12:03:21.271;0;Mov2;1;116;19;0;-1,7227088229010896;1,28963901371807;-0,46776330440115055;-1,7227088229010896;1,28963901371807;-7,843256935331278;45,045319986571855;4,1810357982116155
12:03:21.271;0;Mov2;2;116;1;-0,6771203092097232;0,16150395214697713;9,775176816614277;-0,6771203092097232;0,16150395214697713;9,775176816614277;-7,843256935331278;45,045319986571855;4,1810357982116155
12:03:21.276;0;Wrist;1;117;20;3,135569418164617;0,764452064004944;0,8876735859439375;3,135569418164617;0,764452064004944;0,8876735859439375;-16,75466170232246;14,282662434766687;29,969176305429244
12:03:21.276;0;Wrist;2;117;1;-8,291733108005005;1,2178594794305246;5,078402050843837;-8,291733108005005;1,2178594794305246;5,078402050843837;-16,75466170232246;14,282662434766687;29,969176305429244
12:03:21.277;0;Wrist;1;118;18;2,7587268631550037;-0,9522751906453139;0,8135013885921811;2,7587268631550037;-0,9522751906453139;0,8135013885921811;-28,351695303201392;25,605029450361645;31,464583269753106
12:03:21.277;0;Wrist;2;118;1;-8,321641247291483;1,2453748960463271;5,022175035096286;-8,321641247291483;1,2453748960463271;5,022175035096286;-28,351695303201392;25,605029450361645;31,464583269753106
12:03:21.299;0;Mov2;1;117;19;-0,6603717273667105;-0,8601581097216712;1,2752830353328044;-0,6603717273667105;-0,8601581097216712;1,2752830353328044;10,284737693411055;43,15317239906003;5,401776177251503
12:03:21.299;0;Mov2;2;117;1;-0,8290536090998566;0,2009826989854503;9,762016663106174;-0,8290536090998566;0,2009826989854503;9,762016663106174;10,284737693411055;43,15317239906003;5,401776177251503
12:03:21.321;0;Mov;1;117;18;-0,9116000973731193;1,8040590094454787;18,13868945890683;-0,9116000973731193;1,8040590094454787;18,13868945890683;-101,71819208349864;583,4833826715903;39,826654866176334
12:03:21.321;0;Mov;2;117;1;-8,998761139255958;0,34095278786584066;3,8629354132969147;-8,998761139255958;0,34095278786584066;3,8629354132969147;-101,71819208349864;583,4833826715903;39,826654866176334
12:03:21.321;0;Mov;1;118;19;4,848707827234718;-0,9630420850245675;34,267551957762386;4,848707827234718;-0,9630420850245675;34,267551957762386;-63,41746269112217;216,74245429853207;78,82930997650075
12:03:21.322;0;Mov;2;118;1;-9,177014030884731;0,48690451950514235;3,4011536473433637;-9,177014030884731;0,48690451950514235;3,4011536473433637;-63,41746269112217;216,74245429853207;78,82930997650075
12:03:21.322;0;Mov;1;119;19;12,20610961485641;-1,848323007904294;13,682375751518295;12,20610961485641;-1,848323007904294;13,682375751518295;-1,1597033600878932;-25,482955412457656;50,81331827753532
12:03:21.322;0;Mov;2;119;1;-9,156676305429244;0,6424268437948241;3,42986536568804;-9,156676305429244;0,6424268437948241;3,42986536568804;-1,1597033600878932;-25,482955412457656;50,81331827753532
12:03:21.328;0;Mov2;1;118;19;-0,7788079827837459;0;0,9068147712446974;-0,7788079827837459;-0,16509293184167761;0,9068147712446974;28,168584246345407;33,967101046784876;3,5401470992156745
12:03:21.328;0;Mov2;2;118;1;-0,9498825275811029;0,30386668918996246;9,748857463301492;-0,9498825275811029;0,30386668918996246;9,748857463301492;28,168584246345407;33,967101046784876;3,5401470992156745
12:03:21.328;0;Mov2;1;119;19;0;0;0;-0,2464430736812189;0,2679769220461898;0,3923948053205206;31,922360911893062;19,47080904568621;-1,3733329264198737
12:03:21.328;0;Mov2;2;119;1;-1,0144841322824794;0,41871395001068146;9,738090151676992;-1,0144841322824794;0,41871395001068146;9,738090151676992;31,922360911893062;19,47080904568621;-1,3733329264198737
12:03:21.335;0;Wrist;1;119;19;0,9450972014526811;-1,9835078451643422;0,6436231455236976;0,9450972014526811;-1,9835078451643422;0,6436231455236976;-33,6924344615009;41,74932096316416;34,424878688924835
12:03:21.337;0;Wrist;2;119;1;-8,382653469954528;1,2716941301461837;4,912112891781366;-8,382653469954528;1,2716941301461837;4,912112891781366;-33,6924344615009;41,74932096316416;34,424878688924835
12:03:21.337;0;Wrist;1;120;19;0;-2,148600821710868;0,6388378790017396;-0,052638326634361556;-2,148600821710868;0,6388378790017396;-29,78606524857326;46,174504837183754;37,11050752281258
12:03:21.358;0;Mov2;1;120;19;0;0;0;0,3050630207220679;0,21414228623214668;-0,1292031646979049;22,27851191747795;8,606219672231209;1,098666341135899
12:03:21.358;0;Mov2;2;120;1;-1,0396069454405348;0,4964751121555223;9,730912579729607;-1,0396069454405348;0,4964751121555223;9,730912579729607;22,27851191747795;8,606219672231209;1,098666341135899
12:03:21.365;0;Wrist;2;120;1;-8,446058534501175;1,320743454733421;4,788891548661764;-8,446058534501175;1,320743454733421;4,788891548661764;-29,78606524857326;46,174504837183754;37,11050752281258
12:03:21.366;0;Wrist;1;121;19;0;-1,5743644281975768;0,8924589120723594;0,17825251908837397;-1,5743644281975768;0,8924589120723594;-15,503402813806574;20,020142216254158;32,25806451612903
12:03:21.366;0;Wrist;1;122;19;0;-1,575560849139378;0,6508011347163305;0,30386668918996246;-1,575560849139378;0,6508011347163305;7,141331217383343;1,281777397991882;12,207403790398876
12:03:21.366;0;Wrist;2;122;1;-8,458021790215765;1,4320017805642873;4,736252842036195;-8,458021790215765;1,4320017805642873;4,736252842036195;7,141331217383343;1,281777397991882;12,207403790398876
12:03:21.381;0;Mov;1;120;19;9,557445371868038;0;4,784105864894559;9,557445371868038;0,43306986878948334;4,784105864894559;-12,085329752494888;-61,861018707846306;54,62813196203498
12:03:21.381;0;Mov;2;120;1;-9,07771824549089;0,8218756795136876;3,5961547631763664;-9,07771824549089;0,8218756795136876;3,5961547631763664;-12,085329752494888;-61,861018707846306;54,62813196203498
12:03:21.381;0;Mov;1;121;18;9,081307985168005;-1,2609271761604663;8,26541375469222;9,081307985168005;-1,2609271761604663;8,26541375469222;-53,37687307351909;-89,75493636890775;66,04205450605792
12:03:21.381;0;Mov;2;121;2;-8,917411191137425;0,9439008997238075;3,952659831156346;-8,917411191137425;0,9439008997238075;3,952659831156346;-53,37687307351909;-89,75493636890775;66,04205450605792
12:03:21.382;0;Mov;1;122;18;9,702200384533219;-2,718051650669881;8,373083056123539;9,702200384533219;-2,718051650669881;8,373083056123539;-50,20294808801538;-147,00766014587848;62,71553697317423
12:03:21.382;0;Mov;2;122;1;-8,661397137363812;1,04558857329783;4,463490802484206;-8,661397137363812;1,04558857329783;4,463490802484206;-50,20294808801538;-147,00766014587848;62,71553697317423
12:03:21.389;0;Mov2;1;121;19;0;0;0;0,11484726082071901;0,4952788104266488;-0,2560136663315989;21,423993652150028;10,956144901882992;3,4180730613116856
12:03:21.389;0;Mov2;2;121;1;-1,0778893160420544;0,5754326356357006;9,722538109988708;-1,0778893160420544;0,5754326356357006;9,722538109988708;21,423993652150028;10,956144901882992;3,4180730613116856
12:03:21.389;0;Mov2;1;122;19;0;0;0;-0,28113650929288614;0,19021577480296487;-0,08015381775824382;17,700735496078373;43,45835749382;-3,051850947599719
12:03:21.390;0;Mov2;2;122;1;-1,231019036873989;0,6340525528733176;9,701004440443128;-1,231019036873989;0,6340525528733176;9,701004440443128;17,700735496078373;43,45835749382;-3,051850947599719
12:03:21.412;0;Mov;1;123;19;9,193762016663106;-3,0195258854182563;5,04849391155736;9,193762016663106;-3,0195258854182563;5,04849391155736;-27,06991790520951;-202,76497695852535;51,0879848628193
12:03:21.413;0;Mov;2;123;1;-8,29891067995239;1,1424909207434308;5,0843836787011325;-8,29891067995239;1,1424909207434308;5,0843836787011325;-27,06991790520951;-202,76497695852535;51,0879848628193
12:03:21.417;0;Mov2;1;123;19;0;0;0;0,13039949623001038;0,0011963255947428648;0,17227089123107853;14,984588152714622;35,798211615344705;-3,9979247413556322
12:03:21.418;0;Mov2;2;123;1;-1,3518478957487716;0,6819055757316813;9,68186265907773;-1,3518478957487716;0,6819055757316813;9,68186265907773;14,984588152714622;35,798211615344705;-3,9979247413556322
12:03:21.441;0;Mov;1;124;19;7,914890076143681;-3,0925016022217475;3,9107884361552783;7,914890076143681;-3,0925016022217475;3,9107884361552783;-25,87969603564562;-240,88259529404584;35,55406353953673
12:03:21.441;0;Mov;2;124;1;-7,816791665395062;1,1831660140156255;5,789019344920194;-7,816791665395062;1,1831660140156255;5,789019344920194;-25,87969603564562;-240,88259529404584;35,55406353953673
12:03:21.441;0;Mov;1;125;19;6,100063993499558;-3,32578508865627;4,584319780571917;6,100063993499558;-3,32578508865627;4,584319780571917;-43,36680196539201;-270,02777184362316;17,73125400555437
12:03:21.441;0;Mov;2;125;1;-7,212646774956511;1,1221534337137975;6,537919248023926;-7,212646774956511;1,1221534337137975;6,537919248023926;-43,36680196539201;-270,02777184362316;17,73125400555437
12:03:21.448;0;Mov2;1;124;19;0;0;-0,6878872035889767;0,358897671437727;0,20816065837485123;-0,6878872035889767;18,15851313821833;7,782219916379284;-2,807702871791742
12:03:21.448;0;Mov2;2;124;1;-1,376970708906827;0,7453108190977202;9,673489143040253;-1,376970708906827;0,7453108190977202;9,673489143040253;18,15851313821833;7,782219916379284;-2,807702871791742
12:03:21.449;0;Mov2;1;125;19;0;0;0;0,31104464857936337;0,0945097216354297;-0,3553087066446425;16,602069154942473;13,245033112582782;-1,922666096987823
12:03:21.449;0;Mov2;2;125;1;-1,42123482657857;0,8003418311487167;9,662721831415753;-1,42123482657857;0,8003418311487167;9,662721831415753;16,602069154942473;13,245033112582782;-1,922666096987823
12:03:21.456;0;Wrist;1;123;18;0,7919675402272103;-1,7574022883159885;0,6412305420659505;0,7919675402272103;-1,7574022883159885;0,6412305420659505;20,23377178258614;-14,03851435895871;-5,706961272011475
12:03:21.457;0;Wrist;2;123;1;-8,435292176580095;1,4415723136082035;4,773339030121769;-8,435292176580095;1,4415723136082035;4,773339030121769;20,23377178258614;-14,03851435895871;-5,706961272011475
12:03:21.458;0;Wrist;1;124;19;0,9271523178807947;-1,6437513590273751;0;0,9271523178807947;-1,6437513590273751;0,33257852674756616;21,63762321848201;-6,714072084719382;-14,1300698873867
12:03:21.458;0;Wrist;2;124;1;-8,431702436902981;1,4308053596224861;4,782909920804468;-8,431702436902981;1,4308053596224861;4,782909920804468;21,63762321848201;-6,714072084719382;-14,1300698873867
12:03:21.459;0;Wrist;1;125;19;0,5287759145062105;-1,1532578747291482;0;0,5287759145062105;-1,1532578747291482;-0,16150395214697713;18,06695760979034;10,101626636555071;-18,524735251930295
12:03:21.459;0;Wrist;1;126;18;0;0;0;0,18782311173875393;-0,3505234103194525;-0,2895108002143925;10,773033845027008;17,181920834986418;-19,959105197302165
12:03:21.471;0;Mov;1;126;19;4,3426618243964965;-2,9010895107882932;3,245631323053682;4,3426618243964965;-2,9010895107882932;3,245631323053682;-56,703390606402785;-298,31843012787255;-2,5025177770317697
12:03:21.471;0;Mov;2;126;1;-6,488869804223762;0,9714163759460738;7,278444681386761;-6,488869804223762;0,9714163759460738;7,278444681386761;-56,703390606402785;-298,31843012787255;-2,5025177770317697
12:03:21.479;0;Mov2;1;126;19;0;0;0;0,15671865582178715;0,24165777735602892;-0,3505234103194525;11,20029297769097;13,885921811578722;0,9155552842799157
12:03:21.479;0;Mov2;2;126;1;-1,4702841511658071;0,8422132261497849;9,651954519791254;-1,4702841511658071;0,8422132261497849;9,651954519791254;11,20029297769097;13,885921811578722;0,9155552842799157
12:03:21.485;0;Wrist;1;128;19;0;0;0;0,11006195704472106;-0,13039949623001038;-0,43306986878948334;4,058961760307627;3,9979247413556322;-18,646809289834284
12:03:21.500;0;Mov;1;127;19;2,57927802743614;-1,7298867524872585;2,793420209356975;2,57927802743614;-1,7298867524872585;2,793420209356975;-61,18961149937437;-311,8076113162633;-20,050660725730154
12:03:21.501;0;Mov;2;127;1;-5,658619953001495;0,766844727069155;7,963939519943846;-5,658619953001495;0,766844727069155;7,963939519943846;-61,18961149937437;-311,8076113162633;-20,050660725730154
12:03:21.502;0;Mov;1;128;19;0,515616357062746;0;3,4777183885464034;0,515616357062746;-0,13518479255520036;3,4777183885464034;-68,23938718832972;-318,4606463820307;-27,83288064210944
12:03:21.502;0;Mov;2;128;1;-4,74223446989349;0,5263832514419996;8,559709463789789;-4,74223446989349;0,5263832514419996;8,559709463789789;-68,23938718832972;-318,4606463820307;-27,83288064210944
12:03:21.508;0;Mov2;1;127;21;0;0;0;0,0705832102062479;0,119632557145909;-0,26079899246002075;5,3102206488235115;13,550218207342754;1,1597033600878932
12:03:21.508;0;Mov2;2;127;1;-1,5157445705664236;0,8601581097216712;9,642384105960264;-1,5157445705664236;0,8601581097216712;9,642384105960264;5,3102206488235115;13,550218207342754;1,1597033600878932
12:03:21.508;0;Mov2;1;128;18;0;0;0;0,15911130398438214;0,3923948053205206;-0,3888058107242042;-0,8850367748039186;13,000885036774804;0,3967406231879635
12:03:21.508;0;Mov2;2;128;1;-1,5600085690252388;0,8613544114505448;9,63640247810297;-1,5600085690252388;0,8613544114505448;9,63640247810297;-0,8850367748039186;13,000885036774804;0,3967406231879635
12:03:21.515;0;Wrist;2;128;1;-8,547746208075198;1,27049782841731;4,62020954771569;-8,547746208075198;1,27049782841731;4,62020954771569;4,058961760307627;3,9979247413556322;-18,646809289834284
12:03:21.533;0;Mov;1;129;19;-1,062337155140843;-1,0910489926984466;2,1509934251686147;-1,062337155140843;-1,0910489926984466;2,1509934251686147;-71,8405713064974;-320,20020142216254;-25,818659016693626
12:03:21.533;0;Mov;2;129;1;-3,7696219710379344;0,2548173646027253;9,041828478347117;-3,7696219710379344;0,2548173646027253;9,041828478347117;-71,8405713064974;-320,20020142216254;-25,818659016693626
12:03:21.546;0;Wrist;1;129;18;0;-0,8003418311487167;0;0,1076693014313181;-0,8003418311487167;-0,47254860072634053;1,9531846064638203;-3,173924985503708;-10,65095980712302
12:03:21.562;0;Mov;1;130;19;-2,4931426339762566;-2,19525742362743;3,565050202948088;-2,4931426339762566;-2,19525742362743;3,565050202948088;-58,38190862758263;-305,03250221259196;-31,73924985503708
12:03:21.562;0;Mov;2;130;1;-2,792224026841029;0,013159581658590389;9,392352633747368;-2,792224026841029;0,013159581658590389;9,392352633747368;-58,38190862758263;-305,03250221259196;-31,73924985503708
12:03:21.563;0;Mov;1;131;19;-3,5865841109195227;-2,2419142639698477;5,708865817743462;-3,5865841109195227;-2,2419142639698477;5,708865817743462;-54,414502395702996;-287,51487777336956;-48,371837519455546
12:03:21.563;0;Mov;2;131;1;-1,8423413800469985;-0,21414228623214668;9,622046380504775;-1,8423413800469985;-0,21414228623214668;9,622046380504775;-54,414502395702996;-287,51487777336956;-48,371837519455546
12:03:21.569;0;Mov2;1;129;19;0,5359538440923796;0,5479170998069705;-0,6077333783799249;0,5359538440923796;0,5479170998069705;-0,6077333783799249;-7,9958494827112645;16,449476607562488;-1,8311105685598315
12:03:21.569;0;Mov2;2;129;1;-1,6126469180120242;0,8362315982924894;9,629224906155583;-1,6126469180120242;0,8362315982924894;9,629224906155583;-7,9958494827112645;16,449476607562488;-1,8311105685598315
12:03:21.576;0;Wrist;2;129;2;-8,548943105868709;1,2346080612735375;4,628583540604877;-8,548943105868709;1,2346080612735375;4,628583540604877;1,9531846064638203;-3,173924985503708;-10,65095980712302
12:03:21.577;0;Wrist;1;130;19;0;-1,2740867336039308;-0,5108310309343241;0,3517197120483261;-1,2740867336039308;-0,5108310309343241;3,7842951750236518;-7,629627368999298;-1,922666096987823
12:03:21.584;0;Wrist;2;130;1;-8,538175794244209;1,2274300124744408;4,650117687002167;-8,538175794244209;1,2274300124744408;4,650117687002167;3,7842951750236518;-7,629627368999298;-1,922666096987823
12:03:21.584;0;Wrist;1;131;18;0,541935471949675;-1,3554369201483198;-0,7213843076685384;0,541935471949675;-1,3554369201483198;-0,7213843076685384;6,8666646320993685;-9,063997314371166;-0,15259254737998595
12:03:21.584;0;Wrist;2;131;1;-8,525016594439528;1,2322153386028627;4,671651356547746;-8,525016594439528;1,2322153386028627;4,671651356547746;6,8666646320993685;-9,063997314371166;-0,15259254737998595
12:03:21.585;0;Wrist;2;132;1;-8,510660496841334;1,2346080612735375;4,696774288918729;-8,510660496841334;1,2346080612735375;4,696774288918729;10,284737693411055;-10,864589373455;-3,7842951750236518
12:03:21.599;0;Mov2;1;130;19;0,6579790643024994;0,7297585985900449;-0,5204016235847041;0,6579790643024994;0,7297585985900449;-0,5204016235847041;-8,6977752006592;28,565324869533374;-7,965330973235267
12:03:21.599;0;Mov2;2;130;1;-1,7083529637287516;0,8063234590060121;9,61486880855739;-1,7083529637287516;0,8063234590060121;9,61486880855739;-8,6977752006592;28,565324869533374;-7,965330973235267
12:03:21.601;0;Mov2;1;131;19;0;0;0;0,12202521275931195;0,23089083827192755;-0,2440504255186239;-1,7700735496078372;37,59880367442854;-16,388439588610492
12:03:21.601;0;Mov2;2;131;1;-1,8447341027176734;0,7871822140987884;9,592138241218299;-1,8447341027176734;0,7871822140987884;9,592138241218299;-1,7700735496078372;37,59880367442854;-16,388439588610492
12:03:21.601;0;Mov2;1;132;18;0;0;0;0,1818414838814585;0,354112375112537;0,11245460520731605;-1,4648884548478653;35,8897671437727;-16,541032135990477
12:03:21.601;0;Mov2;2;132;1;-1,9691519859920041;0,7728263549264504;9,568211729789118;-1,9691519859920041;0,7728263549264504;9,568211729789118;-1,4648884548478653;35,8897671437727;-16,541032135990477
12:03:21.621;0;Mov;1;132;19;-5,63110465559862;-3,9718008972441785;8,101516960661641;-5,63110465559862;-3,9718008972441785;8,101516960661641;-63,90575884273812;-270,79073458052306;-71,38279366435744
12:03:21.621;0;Mov;2;132;1;-0,937919271866512;-0,49168981583033233;9,741678937650684;-0,937919271866512;-0,49168981583033233;9,741678937650684;-63,90575884273812;-270,79073458052306;-71,38279366435744
12:03:21.624;0;Mov;1;133;19;-8,082376132999665;-2,2550737022003844;7,940013008514664;-8,082376132999665;-2,2550737022003844;7,940013008514664;-59,968871120334484;-264,47340311899165;-108,676412244026
12:03:21.624;0;Mov;2;133;1;-0,05383465071565905;-0,710617413289285;9,773979918820764;-0,05383465071565905;-0,710617413289285;9,773979918820764;-59,968871120334484;-264,47340311899165;-108,676412244026
12:03:21.624;0;Mov;1;134;19;-10,178337771233252;1,0419995488982818;8,139799569689016;-10,178337771233252;1,0419995488982818;8,139799569689016;-46,327097384563736;-259,6209601123081;-128,72707296975616
12:03:21.624;0;Mov;2;134;1;0,8170903533852657;-0,8230719812425611;9,730912579729607;0,8170903533852657;-0,8230719812425611;9,730912579729607;-46,327097384563736;-259,6209601123081;-128,72707296975616
12:03:21.629;0;Mov2;1;133;20;0;0;0;0,09929502541142765;-0,06819056204365291;-0,13039949623001038;18,4942167424543;27,985473189489426;-21,08829004791406
12:03:21.629;0;Mov2;2;133;1;-2,070839659566027;0,8170903533852657;9,543089274269844;-2,070839659566027;0,8170903533852657;9,543089274269844;18,4942167424543;27,985473189489426;-21,08829004791406
12:03:21.629;0;Mov2;1;134;18;0;0;0;0,48211922317995237;0,10168767357402264;-0,22132023071993165;6,4394054994354075;34,211249122592854;-20,32532731101413
12:03:21.629;0;Mov2;2;134;1;-2,1868831923123873;0,825464644306772;9,51676992095706;-2,1868831923123873;0,825464644306772;9,51676992095706;6,4394054994354075;34,211249122592854;-20,32532731101413
12:03:21.636;0;Wrist;1;134;19;0,5108310309343241;-0,532364879299295;-1,435590685750908;0,5108310309343241;-0,532364879299295;-1,435590685750908;9,735404522843105;-14,709921567430646;-10,711996826075014
12:03:21.637;0;Wrist;2;134;1;-8,47357383190405;1,2154667567598498;4,7685538232062745;-8,47357383190405;1,2154667567598498;4,7685538232062745;9,735404522843105;-14,709921567430646;-10,711996826075014
12:03:21.638;0;Wrist;1;135;18;0;-0,7094210519539476;-1,423627430036317;0,07417218990094836;-0,7094210519539476;-1,423627430036317;12,665181432538835;-13,672292245246743;-9,552293465987121
12:03:21.638;0;Wrist;2;135;2;-8,458021790215765;1,2046999219870602;4,798461962492752;-8,458021790215765;1,2046999219870602;4,798461962492752;12,665181432538835;-13,672292245246743;-9,552293465987121
12:03:21.638;0;Wrist;1;136;18;0;-0,7895748771629993;-1,381756035035249;-0,3888058107242042;-0,7895748771629993;-1,381756035035249;17,975402081362347;-20,44740134891812;-4,303109836115604
12:03:21.638;0;Wrist;2;136;1;-8,4293105487228;1,2178594794305246;4,846314985351116;-8,4293105487228;1,2178594794305246;4,846314985351116;17,975402081362347;-20,44740134891812;-4,303109836115604
12:03:21.651;0;Mov;1;135;19;-13,796026680806909;2,34360193754387;8,68293080690939;-13,796026680806909;2,34360193754387;8,68293080690939;-21,423993652150028;-249,12259285256508;-116,94692831202124
12:03:21.651;0;Mov;2;135;1;1,6210211493270668;-0,8266610056421094;9,629224906155583;1,6210211493270668;-0,8266610056421094;9,629224906155583;-21,423993652150028;-249,12259285256508;-116,94692831202124
12:03:21.659;0;Mov2;1;135;19;0;0;0;0,36487929929502244;0,4294808741931669;-0,03947874311306917;3,6317026276436657;40,98635822626423;-22,40058595538194
12:03:21.659;0;Mov2;2;135;1;-2,3316386818292796;0,8242683425778985;9,4820770516068;-2,3316386818292796;0,8242683425778985;9,4820770516068;3,6317026276436657;40,98635822626423;-22,40058595538194
12:03:21.666;0;Wrist;1;137;19;0;-0,7237769707327494;-1,4320017805642873;-0,004785302378971459;-0,7237769707327494;-1,4320017805642873;21,485030671102024;-35,09628589739677;0,4882961516159551
12:03:21.667;0;Wrist;2;137;1;-8,370690214239936;1,2549455483031708;4,937235824152348;-8,370690214239936;1,2549455483031708;4,937235824152348;21,485030671102024;-35,09628589739677;0,4882961516159551
12:03:21.667;0;Wrist;1;138;19;0;-0,5909848561433759;-1,1520615730002746;0,28831446868228705;-0,5909848561433759;-1,1520615730002746;22,980437635425886;-43,03109836115604;2,2278511917477952
12:03:21.667;0;Wrist;2;138;1;-8,295321893978699;1,3004059677037874;5,052083174382763;-8,295321893978699;1,3004059677037874;5,052083174382763;22,980437635425886;-43,03109836115604;2,2278511917477952
12:03:21.681;0;Mov;1;136;19;-17,01174962614826;3,097287047563097;6,8740868289742725;-17,01174962614826;3,097287047563097;6,8740868289742725;2,4414807580797753;-239,72289193395795;-91,52500991851558
12:03:21.682;0;Mov;2;136;1;2,367528448973052;-0,7381328895115512;9,479684209723198;2,367528448973052;-0,7381328895115512;9,479684209723198;2,4414807580797753;-239,72289193395795;-91,52500991851558
12:03:21.682;0;Mov;1;137;19;-18,42939542832728;4,9300577753532515;3,6224738780632952;-18,42939542832728;4,9300577753532515;3,6224738780632952;2,71614734336375;-230,90304269539476;-58,7176122318186
12:03:21.682;0;Mov;2;137;1;3,0745567186498612;-0,6460158085879085;9,282290490432448;3,0745567186498612;-0,6460158085879085;9,282290490432448;2,71614734336375;-230,90304269539476;-58,7176122318186
12:03:21.690;0;Mov2;1;136;19;0;0;0;0,3732535902165288;0,478530228583636;-0,07417218990094836;12,634662923062837;45,89983825189978;-25,727103488265634
12:03:21.690;0;Mov2;2;136;1;-2,4907497920926542;0,8469984926717429;9,43900875881222;-2,4907497920926542;0,8469984926717429;9,43900875881222;12,634662923062837;45,89983825189978;-25,727103488265634
12:03:21.690;0;Mov2;1;137;19;0;0;0;-0,08852809377813425;-0,16389660030957212;0,0837427900021363;29,81658375804926;40,86428418836024;-28,59584337900937
12:03:21.690;0;Mov2;2;137;1;-2,6390943060090946;0,9151890621662038;9,392352633747368;-2,6390943060090946;0,9151890621662038;9,392352633747368;29,81658375804926;40,86428418836024;-28,59584337900937
12:03:21.697;0;Wrist;1;139;19;0;-0,5945738209364605;-1,1652211304437392;-0,2787438760319071;-0,5945738209364605;-1,1652211304437392;28,13806573686941;-22,980437635425886;-0,8545182653279214
12:03:21.697;0;Wrist;2;139;1;-8,258235229041414;1,3458662678914761;5,099936197241127;-8,258235229041414;1,3458662678914761;5,099936197241127;28,13806573686941;-22,980437635425886;-0,8545182653279214
12:03:21.718;0;Mov2;1;138;19;0;-0,6998504593035676;0;0,08254646592083881;-0,6998504593035676;-0,37564622347750787;23,010956144901883;34,7605822931608;-28,47376934110538
12:03:21.718;0;Mov2;2;138;1;-2,764708491012299;0,9582568185026094;9,35167718283639;-2,764708491012299;0,9582568185026094;9,35167718283639;23,010956144901883;34,7605822931608;-28,47376934110538
12:03:21.726;0;Wrist;1;140;18;-1,6377697311700796;-0,7225806690038759;-1,282461084131901;-1,6377697311700796;-0,7225806690038759;-1,282461084131901;30,091250343333233;5,249183629871517;-7,812738425855281
12:03:21.726;0;Wrist;2;140;1;-8,278572954496902;1,3721855019913327;5,0604571672719505;-8,278572954496902;1,3721855019913327;5,0604571672719505;30,091250343333233;5,249183629871517;-7,812738425855281
12:03:21.727;0;Wrist;1;141;19;-1,4906216381954405;-0,7704336918622394;-1,247767618717002;-1,4906216381954405;-0,7704336918622394;-1,247767618717002;31,830805383465073;-5,798516800439467;-15,259254737998596
12:03:21.727;0;Wrist;2;141;1;-8,279769852290414;1,3805597333063753;5,0568683812982576;-8,279769852290414;1,3805597333063753;5,0568683812982576;31,830805383465073;-5,798516800439467;-15,259254737998596
12:03:21.741;0;Mov;1;138;18;-20,794532227546007;5,882333025605029;0;-20,794532227546007;5,882333025605029;-0,3660756308271279;-24,323252052369764;-210,42512283700063;-18,280587176122317
12:03:21.742;0;Mov;2;138;1;3,6858791810357983;-0,6783166109385967;9,053791734061708;3,6858791810357983;-0,6783166109385967;9,053791734061708;-24,323252052369764;-210,42512283700063;-18,280587176122317
12:03:21.742;0;Mov;1;139;20;-24,230378505813775;5,316470744193854;-3,7672293675801876;-24,230378505813775;5,316470744193854;-3,7672293675801876;-37,324137089144564;-169,83550523392438;24,262215033417768
12:03:21.742;0;Mov;2;139;1;4,1333048493911555;-0,820679377784814;8,846827600939971;4,1333048493911555;-0,820679377784814;8,846827600939971;-37,324137089144564;-169,83550523392438;24,262215033417768
12:03:21.742;0;Mov;1;140;18;-26,027258751182593;4,428797456282235;-7,90292682042909;-26,027258751182593;4,428797456282235;-7,90292682042909;-35,950804162724694;-119,26633503219703;54,78072450941496
12:03:21.742;0;Mov;2;140;1;4,419226565599536;-1,0120914096118045;8,687716490676596;4,419226565599536;-1,0120914096118045;8,687716490676596;-35,950804162724694;-119,26633503219703;54,78072450941496
12:03:21.748;0;Mov2;1;139;19;0;0;0;0,1531296761270867;-0,4569963802186651;-0,22251656225203711;-6,500442518387402;26,673177282021545;-24,414807580797753
12:03:21.748;0;Mov2;2;139;1;-2,859218115787225;0,9116000973731193;9,327750671407209;-2,859218115787225;0,9116000973731193;9,327750671407209;-6,500442518387402;26,673177282021545;-24,414807580797753
12:03:21.748;0;Mov2;1;140;19;0;0;0;-0,22132023071993165;-0,15671865582178715;-0,13997008888039034;-17,15140232551042;7,93481246375927;-19,104586931974243
12:03:21.749;0;Mov2;2;140;1;-2,8951078829309975;0,8374279000213629;9,324161885433515;-2,8951078829309975;0,8374279000213629;9,324161885433515;-17,15140232551042;7,93481246375927;-19,104586931974243
12:03:21.756;0;Wrist;1;142;19;-1,9392438467055269;-0,7381328895115512;-1,2525529448454238;-1,9392438467055269;-0,7381328895115512;-1,2525529448454238;29,389324625385296;-13,946958830530717;-21,72917874691
12:03:21.757;0;Wrist;2;142;1;-8,270198484756005;1,3662038741340372;5,074813264870143;-8,270198484756005;1,3662038741340372;5,074813264870143;29,389324625385296;-13,946958830530717;-21,72917874691
12:03:21.770;0;Mov;1;141;19;-24,99124118778039;0;-8,10032101657155;-24,99124118778039;-0,06819056204365291;-8,10032101657155;-23,499252296517838;-48,310800500503554;63,142796105838194
12:03:21.770;0;Mov;2;141;1;4,487417313913388;-1,2202520828882717;8,625507370220038;4,487417313913388;-1,2202520828882717;8,625507370220038;-23,499252296517838;-48,310800500503554;63,142796105838194
12:03:21.778;0;Mov2;1;141;19;-0,5586840537926878;0;0,6962614945104831;-0,5586840537926878;-0,1770561875562685;0,6962614945104831;-24,35377056184576;-26,39851069673757;-12,421033356730858
12:03:21.778;0;Mov2;2;141;1;-2,8137576963866087;0,7417218543046358;9,357658810693685;-2,8137576963866087;0,7417218543046358;9,357658810693685;-24,35377056184576;-26,39851069673757;-12,421033356730858
12:03:21.801;0;Mov;1;142;18;-19,880539109469893;-5,826105533005768;-7,365776734214301;-19,880539109469893;-5,826105533005768;-7,365776734214301;-0,8850367748039186;22,61421552171392;35,76769310586871
12:03:21.801;0;Mov;2;142;1;4,379748012482071;-1,343473664433729;8,662594035157323;4,379748012482071;-1,343473664433729;8,662594035157323;-0,8850367748039186;22,61421552171392;35,76769310586871
12:03:21.801;0;Mov;1;143;19;4,854689455092013;-9,56103415784173;-3,1702627643665884;4,854689455092013;-9,56103415784173;-3,1702627643665884;65,00442518387402;84,38367870113224;-29,87762077700125
