Frecuencia (Hz);100
time;timespan;canal;id;sample;gap;accX;accY;accZ;rawAccX;rawAccY;rawAccZ;rawGirX;rawGirY;rawGirZ
18:53:49.287;0;Mov;1;41;12,36;0;0;0;-0,0717795342875454;0,13039949623001038;0,08972441785943175;-3,173924985503708;1,3122959074678793;-0,793481246375927
18:53:49.287;0;Mov;1;42;12,36;0;0;0;-0,05383465071565905;0,3146336431756798;0,10527665326872311;-2,380443739127781;1,1291848506118962;-0,21362956633198035
18:53:49.287;0;Mov;1;43;12,36;0;0;0;-0,027515489261180266;0,2799401777607807;0,10288399765532014;-1,9531846064638203;0,8239997558519242;0,12207403790398877
18:53:49.287;0;Mov;1;44;12,36;0;0;0;-0,0705832102062479;0,18064516725096896;0,09092074194072924;-1,4954069643238623;1,0071108127079074;0,061037018951994385
18:53:49.287;0;Mov;1;45;12,36;0;0;0;-0,0119632557145909;0,19260842296555986;0,09929502541142765;-0,8545182653279214;1,281777397991882;0,09155552842799158
18:53:49.288;0;Wrist;1;21;15,26;2,1210852858821374;0;0,5108310309343241;-0,19739371929074984;2,1210852858821374;0,5108310309343241;22,247993408001953;-12,26844080935087;-18,341624195074314
18:53:49.288;0;Wrist;1;22;15,26;2,9333902535325174;-0,5694510077784051;0;-0,5694510077784051;2,9333902535325174;0,16389660030957212;20,56947538682211;-11,017181920834986;-19,928586687826165
18:53:49.288;0;Wrist;1;23;15,26;3,390386812570574;0;0;0,007177953801294938;3,390386812570574;-0,297885061332667;15,381328775902585;-7,843256935331278;-22,522659993285927
18:53:49.289;0;Wrist;1;24;15,26;2,642683330408643;0;0;0,17585985602416304;2,642683330408643;-0,3337748284764397;8,636738181707205;-6,378368480483413;-23,25510422070986
18:53:49.289;0;Wrist;1;25;15,26;2,471608726004822;0;0;0,36846829389133884;2,471608726004822;-0,3469344157231361;1,0071108127079074;-5,005035554063539;-20,661030915250098
18:53:49.290;0;Mov;1;46;11,04;0;0;0;-0,0598162785729545;0,17346720786156805;0,0933133975541322;-0,09155552842799158;1,1597033600878932;0,36622211371196634
18:53:49.290;0;Mov;1;47;11,04;0;0;0;-0,03947874311306917;0,24046144582392345;0,07417218990094836;0,7629627368999298;0,9765923032319102;0,7019257179479355
18:53:49.290;0;Mov;1;48;11,04;0;0;0;0;0,3708609271523179;0,10527665326872311;1,281777397991882;0,793481246375927;1,1597033600878932
18:53:49.290;0;Mov;1;49;11,04;0;0;0;-0,04426404688906713;0,3708609271523179;0,10168767357402264;1,8005920590838342;0,9460737937559129;1,4343699453718681
18:53:49.290;0;Mov;1;50;11,04;0;0;0;-0,027515489261180266;0,32779320061914424;0,0837427900021363;2,1057771538438064;0,9155552842799157;1,6174810022278512
18:53:49.296;0;Wrist;1;26;12,5;1,9667592633213293;0;0;0,4952788104266488;1,9667592633213293;-0,2787438760319071;-6,74459059419538;-3,5706656086916717;-16,876735740226447
18:53:49.296;0;Wrist;1;27;12,5;1,191540245330668;0;0;0,29668875960379343;1,191540245330668;-0,0358897671437727;-13,91644032105472;-2,4414807580797753;-11,597033600878934
18:53:49.296;0;Wrist;1;28;12,5;0;0;0;-0,08852809377813425;-0,08135014183954131;0,4701559674653615;-17,05984679708243;-2,838221381267739;-7,782219916379284
18:53:49.296;0;Wrist;1;29;12,5;0;0;0;-0,05144199882766007;-0,29668875960379343;0,3337748284764397;-14,465773491622668;-4,7303689687795645;-6,042664876247444
18:53:49.296;0;Wrist;1;30;12,5;0;0;0;0,36846829389133884;0,06340525826765496;0,2153386028626362;-11,810663167210913;-4,272591326639607;-2,9602954191717274
18:53:49.297;0;Mov;1;51;10,09;0;0;0;-0,08135014183954131;0,4306772057252724;0,0717795342875454;1,4954069643238623;0,7629627368999298;1,5259254737998595
18:53:49.297;0;Mov;1;52;10,09;0;0;0;-0,058619954491657;0,4342662003215888;0,07895748622613834;1,1291848506118962;0,8850367748039186;1,3122959074678793
18:53:49.297;0;Mov;1;53;10,09;0;0;0;0,020337535459885328;0,43546250205046233;0,09211707347283471;0,9155552842799157;0,7629627368999298;1,1902218695638904
18:53:49.297;0;Mov;1;54;10,09;0;0;0;-0,028711815205179753;0,4857081879730369;0,09809870133013016;0,36622211371196634;0,4882961516159551;1,1902218695638904
18:53:49.297;0;Mov;1;55;10,09;0;0;0;-0,0478530228583636;0,4534073856223487;0,09092074194072924;0;0,3051850947599719;1,4343699453718681
18:53:49.298;0;Wrist;1;31;10,5;0;0,5969664840006714;0;0,5969664840006714;-0,05742363041035951;0,36846829389133884;-10,162663655507066;-2,7771843623157446;0,9155552842799157
18:53:49.298;0;Wrist;1;32;10,5;0;0,7871822140987884;0;0,7871822140987884;-0,06101260637965598;0,39957273490668965;-7,9958494827112645;-1,6785180211798456;2,5940733054597613
18:53:49.298;0;Wrist;1;33;10,5;0;0,7154026798112431;0;0,7154026798112431;0,20457167868015075;0,417517618478576;-5,798516800439467;-0,8239997558519242;2,044740134891812
18:53:49.298;0;Wrist;1;34;10,5;0;0;0;0,31104464857936337;0,2787438760319071;0,45221108389347514;-3,5401470992156745;-0,8239997558519242;1,1902218695638904
18:53:49.298;0;Wrist;1;35;10,5;0;0;0;0,29668875960379343;0,49049348429822687;0,22969452164143803;-1,8616290780358287;-1,281777397991882;0
18:53:49.326;0;Mov;1;56;9,7;0;0;0;0,0466566987770661;0,40316172950300605;0,0945097216354297;-0,3051850947599719;0,24414807580797754;1,586962492751854
18:53:49.327;0;Mov;1;57;9,7;0;0;0;-0,04187139500106815;0,41632131674970246;0,08135014183954131;-0,640888698995941;0,18311105685598317;1,5259254737998595
18:53:49.327;0;Mov;1;58;9,7;0;0;0;-0,010766930701942408;0,40675069429609056;0,07895748622613834;-0,3357036042359691;0,061037018951994385;1,5259254737998595
18:53:49.327;0;Mov;1;59;9,7;0;0;0;0,04187139500106815;0,3146336431756798;0,0933133975541322;-0,061037018951994385;0,12207403790398877;1,586962492751854
18:53:49.327;0;Mov;1;60;9,7;0;0;0;-0,03947874311306917;0,34813074725524157;0,058619954491657;0,061037018951994385;0,18311105685598317;1,7090365306558428
18:53:49.343;0;Wrist;1;36;10,3;0,6364452159375286;0,7165990411465804;0;0,7165990411465804;0,6364452159375286;0,16628926337378308;-2,1362956633198036;-0,9155552842799157;-1,3428144169438765
18:53:49.344;0;Wrist;1;37;10,3;0;0,7046357854319895;0;0,7046357854319895;0,40435806103511157;0,20935697500534073;-2,9908139286477247;-0,8850367748039186;-2,1362956633198036
18:53:49.344;0;Wrist;1;38;10,3;0;0,6089297397152623;0;0,6089297397152623;0,33257852674756616;0,20217903051755579;-3,5706656086916717;-0,7019257179479355;-2,838221381267739
18:53:49.344;0;Wrist;1;39;10,3;0;0,579021600428785;0;0,579021600428785;0,2512283700064089;0,2249092104146321;-3,7232581560716573;-0,21362956633198035;-3,021332438123722
18:53:49.344;0;Wrist;1;40;10,3;0;0;0;0,4773339268547624;0,16270028367908262;0,2751548814355907;-3,5706656086916717;0,36622211371196634;-2,3194067201757864
18:53:49.385;0;Mov;1;61;9,88;0;0;0;-0,009570604757942918;0,36009400296983246;0,05742363041035951;0,15259254737998595;0,061037018951994385;1,73955504013184
18:53:49.385;0;Mov;1;62;9,88;0;0;0;-0,08015381775824382;0,33736382307275614;0,06460158234895245;0,45777764213995786;-0,12207403790398877;1,6174810022278512
18:53:49.385;0;Mov;1;63;9,88;0;0;0;-0,025122837373181287;0,3182226079687643;0,06579790643024995;1,0681478316599018;-0,12207403790398877;1,5564439832758568
18:53:49.385;0;Mov;1;64;9,88;0;0;0;-0,01794488357188635;0,26917325357829525;0,05503097852236053;1,7090365306558428;-0,24414807580797754;1,5259254737998595
18:53:49.385;0;Mov;1;65;9,88;0;0;0;-0,01794488357188635;0,22132023071993165;0,031104465230476736;2,7771843623157446;-0,4272591326639607;1,4954069643238623
18:53:49.409;0;Mov;1;66;9,49;0;0;0;-0,007177953801294938;0,22012391408944212;0,040675070919770656;4,119998779259621;-0,36622211371196634;1,4343699453718681
18:53:49.409;0;Mov;1;67;9,49;0;0;0;-0,02273018548518231;0,25362103307061984;0,052638326634361556;5,4322946867275;-0,3967406231879635;1,3733329264198737
18:53:49.409;0;Mov;1;68;9,49;0;0;0;-0,010766930701942408;0,29668875960379343;0,06101260637965598;6,164738914151433;-0,5493331705679495;1,4343699453718681
18:53:49.410;0;Mov;1;69;9,49;0;0;0;-0,015552232615238368;0,3313821952154607;0,08972441785943175;6,317331461531419;-0,6714072084719382;1,4343699453718681
18:53:49.410;0;Mov;1;70;9,49;0;0;0;-0,0119632557145909;0,3660756308271279;0,08254646592083881;5,920590838343455;-0,7019257179479355;1,4648884548478653
18:53:49.430;0;Wrist;1;41;11,17;0;0,6149113675725577;0;0,6149113675725577;0,20935697500534073;0,25720999786370435;-3,0823694570757163;1,098666341135899;-1,922666096987823
18:53:49.430;0;Wrist;1;42;11,17;0;0,581414263492996;0;0,581414263492996;0,2895108002143925;0,21773125102523117;-2,410962248603778;1,6479995117038484;-1,403851435895871
18:53:49.430;0;Wrist;1;43;11,17;0;0,5754326356357006;0;0,5754326356357006;0,34573808419103064;0,1985900508228553;-2,3194067201757864;2,1362956633198036;-1,0376293221839046
18:53:49.430;0;Wrist;1;44;11,17;0;0,5263832514419996;0;0,5263832514419996;0,3780388865417188;0,19739371929074984;-2,685628833887753;2,5025177770317697;-0,793481246375927
18:53:49.430;0;Wrist;1;45;11,17;0;0;0;0,417517618478576;0,44383679297196876;0,20576799531064027;-3,295999023407697;2,533036286507767;-0,8850367748039186
18:53:49.432;0;Wrist;1;46;9,97;0;0,525186949713126;0;0,525186949713126;0,4665669728690451;0,1387737722499008;-4,333628345591602;2,533036286507767;-1,3428144169438765
18:53:49.432;0;Wrist;1;47;9,97;0;0,6161076693014313;0;0,6161076693014313;0,42110661307489244;0,22610554194673757;-5,615405743583484;2,533036286507767;-1,5564439832758568
18:53:49.432;0;Wrist;1;48;9,97;0;0;0;0,3289895321512497;0,26199529418889433;0,2679769220461898;-5,676442762535478;2,166814172795801;-1,7090365306558428
18:53:49.432;0;Wrist;1;49;9,97;0;0;0;0,3971801016457106;0,20816065837485123;0,20457167868015075;-4,974517044587542;1,8616290780358287;-1,8616290780358287
18:53:49.432;0;Wrist;1;50;9,97;0;0,6591754256378368;0;0,6591754256378368;0,22849819010933256;0,23328348643452254;-4,577776421399578;1,9837031159398175;-1,5564439832758568
18:53:49.469;0;Mov;1;71;9,66;0;0;0;0,0011963255947428648;0,2739585499034852;0,0693868861249504;5,829035309915464;-0,6714072084719382;1,4648884548478653
18:53:49.469;0;Mov;1;72;9,66;0;0;0;0,00837427881394343;0,33975645633373514;0,08733176969683676;5,859553819391461;-0,5493331705679495;1,4343699453718681
18:53:49.469;0;Mov;1;73;9,66;0;0;0;0,003588976900647469;0,3194189395008698;0,08613544561553926;5,829035309915464;-0,5493331705679495;1,281777397991882
18:53:49.469;0;Mov;1;74;9,66;0;0;0;-0,003588976900647469;0,33257852674756616;0,08852809377813425;5,829035309915464;-0,4272591326639607;1,3122959074678793
18:53:49.469;0;Mov;1;75;9,66;0;0;0;0,00598162785729545;0,31582994490455335;0,10288399765532014;5,890072328867458;-0,27466658528397475;1,2207403790398876
18:53:49.490;0;Wrist;1;51;10,15;0;0;0;0,48690451950514235;0,18423414694566942;0,2775475444998016;-4,211554307687613;1,9531846064638203;-1,098666341135899
18:53:49.491;0;Wrist;1;52;10,15;0;0;0;0,4569963802186651;0,1985900508228553;0,297885061332667;-3,6317026276436657;2,1362956633198036;-0,640888698995941
18:53:49.491;0;Wrist;1;53;10,15;0;0,5538987276642658;0;0,5538987276642658;0,2476394052133244;0,2512283700064089;-2,7771843623157446;2,288888210699789;-0,27466658528397475
18:53:49.491;0;Wrist;1;54;10,15;0;0,5766289373645741;0;0,5766289373645741;0,29549242807168796;0,20457167868015075;-2,380443739127781;2,4414807580797753;0
18:53:49.491;0;Wrist;1;55;10,15;0;0,6161076693014313;0;0,6161076693014313;0,3553087066446425;0,17227089123107853;-2,5940733054597613;2,5025177770317697;0,4272591326639607
18:53:49.529;0;Mov;1;76;9,82;0;0;0;-0,0239265114291818;0,3265968988902707;0,09809870133013016;5,798516800439467;-0,3051850947599719;1,1597033600878932
18:53:49.529;0;Mov;1;77;9,82;0;0;0;-0,026319163317180778;0,29668875960379343;0,08254646592083881;5,645924253059481;-0,3051850947599719;1,1597033600878932
18:53:49.529;0;Mov;1;78;9,82;0;0;0;-0,04904935066506508;0,3361674915406507;0,08733176969683676;5,462813196203498;-0,15259254737998595;1,2207403790398876
18:53:49.529;0;Mov;1;79;9,82;0;0;0;0,00837427881394343;0,3026703874610889;0,10288399765532014;5,279702139347514;-0,15259254737998595;1,1291848506118962
18:53:49.529;0;Mov;1;80;9,82;0;0;0;-0,06579790643024995;0,3050630207220679;0,07776116214484084;4,8829615161595505;0;1,0681478316599018
18:53:49.550;0;Wrist;1;56;10,31;0;0,5694510077784051;0;0,5694510077784051;0,37923521807382427;0,1818414838814585;-3,051850947599719;2,533036286507767;0,640888698995941
18:53:49.551;0;Wrist;1;57;10,31;0;0,5682546464430677;0;0,5682546464430677;0,38043154960592973;0,18064516725096896;-3,5401470992156745;2,380443739127781;0,7019257179479355
18:53:49.551;0;Wrist;1;58;10,31;0;0,5036531013481551;0;0,5036531013481551;0,40316172950300605;0,22012391408944212;-3,9979247413556322;2,380443739127781;0,7324442274239327
18:53:49.551;0;Wrist;1;59;10,31;0;0;0;0,297885061332667;0,3182226079687643;0,31224098011146884;-3,7842951750236518;2,075258644367809;0,7019257179479355
18:53:49.551;0;Wrist;1;60;10,31;0;0;0;0,3026703874610889;0,25362103307061984;0,2799401777607807;-2,8687398907437363;1,73955504013184;0,7629627368999298
18:53:49.558;0;Mov;1;81;9,56;0;0;0;-0,04546037097036462;0,32540056735816525;0,08613544561553926;4,547257911923582;0;0,9155552842799157
18:53:49.558;0;Mov;1;82;9,56;0;0;0;-0,019141209515885837;0,3050630207220679;0,0837427900021363;4,119998779259621;0,030518509475997192;1,098666341135899
18:53:49.558;0;Mov;1;83;9,56;0;0;0;-0,02990813928647725;0,3289895321512497;0,07776116214484084;3,845332193975646;0,21362956633198035;1,1291848506118962
18:53:49.558;0;Mov;1;84;9,56;0;0;0;-0,0466566987770661;0,354112375112537;0,07297585836884289;3,173924985503708;0,15259254737998595;1,0376293221839046
18:53:49.558;0;Mov;1;85;9,56;0;0;0;-0,025122837373181287;0,32300790429395426;0,07656483806354335;2,685628833887753;0,24414807580797754;0,9765923032319102
18:53:49.580;0;Wrist;1;61;9,95;0;0;0;0,47254860072634053;0,2990813928647725;0,2560136663315989;-2,166814172795801;1,586962492751854;0,9765923032319102
18:53:49.580;0;Wrist;1;62;9,95;0;0,541935471949675;0;0,541935471949675;0,31224098011146884;0,290707131746498;-2,0142216254158147;1,5259254737998595;1,3122959074678793
18:53:49.580;0;Wrist;1;63;9,95;0;0;0;0,4462294560361797;0,25720999786370435;0,26558428878521073;-1,8616290780358287;1,4954069643238623;1,6174810022278512
18:53:49.580;0;Wrist;1;64;9,95;0;0,5060457048059023;0;0,5060457048059023;0,24046144582392345;0,2488357218438139;-1,5259254737998595;1,5564439832758568;1,9531846064638203
18:53:49.581;0;Wrist;1;65;9,95;0;0,6292672863513596;0;0,6292672863513596;0,354112375112537;0,24165777735602892;-1,281777397991882;1,73955504013184;1,9837031159398175
18:53:49.618;0;Mov;1;86;9,72;0;0;0;-0,01674855762788686;0,33736382307275614;0,0957060457167272;2,288888210699789;0,45777764213995786;0,8239997558519242
18:53:49.619;0;Mov;1;87;9,72;0;0;0;-0,009570604757942918;0,3433454509300516;0,0945097216354297;1,922666096987823;0,5188146610919523;0,8545182653279214
18:53:49.619;0;Mov;1;88;9,72;0;0;0;-0,01674855762788686;0,37564622347750787;0,07536851398224585;1,4954069643238623;0,5493331705679495;0,7019257179479355
18:53:49.619;0;Mov;1;89;9,72;0;0;0;0,015552232615238368;0,358897671437727;0,0717795342875454;1,1902218695638904;0,5798516800439466;0,4882961516159551
18:53:49.619;0;Mov;1;90;9,72;0;0;0;0,031104465230476736;0,3134373116435743;0,06579790643024995;0,8239997558519242;0,5798516800439466;0,5188146610919523
18:53:49.640;0;Wrist;1;66;10,11;0;0,5084383678701132;0;0,5084383678701132;0,3361674915406507;0,2631916257209998;-1,0071108127079074;1,7090365306558428;1,6174810022278512
18:53:49.640;0;Wrist;1;67;10,11;0;0;0;0,417517618478576;0,32300790429395426;0,24285409398651844;-0,6103701895199438;1,6479995117038484;1,403851435895871
18:53:49.640;0;Wrist;1;68;10,11;0;0;0;0,4701559674653615;0,30027772439687794;0,24046144582392345;-0,45777764213995786;1,5564439832758568;1,3428144169438765
18:53:49.641;0;Wrist;1;69;10,11;0;0,5239905883777887;0;0,5239905883777887;0,3134373116435743;0,22969452164143803;-0,27466658528397475;1,4648884548478653;1,1597033600878932
18:53:49.641;0;Wrist;1;70;10,11;0;0,5694510077784051;0;0,5694510077784051;0,3624866660340434;0,19978636745334483;-0,3357036042359691;1,5564439832758568;0,9460737937559129
18:53:49.681;0;Mov;1;91;9,87;0;0;0;-0,03230079117447623;0,3265968988902707;0,07536851398224585;0,5493331705679495;0,6714072084719382;0,5493331705679495
18:53:49.681;0;Mov;1;92;9,87;0;0;0;0,00598162785729545;0,3361674915406507;0,08135014183954131;0,5188146610919523;0,7324442274239327;0,5798516800439466
18:53:49.681;0;Mov;1;93;9,87;0;0;0;0,0239265114291818;0,2942960965395825;0,0933133975541322;0,4882961516159551;0,640888698995941;0,7019257179479355
18:53:49.681;0;Mov;1;94;9,87;0;0;0;-0,03349711525577372;0,32779320061914424;0,07776116214484084;0,3967406231879635;0,640888698995941;0,7629627368999298
18:53:49.682;0;Mov;1;95;9,87;0;0;0;-0,019141209515885837;0,29549242807168796;0,05383465071565905;0,3967406231879635;0,7324442274239327;0,8545182653279214
18:53:49.702;0;Wrist;1;71;10,28;0;0,5598803555215613;0;0,5598803555215613;0,3696645956202124;0,21414228623214668;-0,6103701895199438;1,586962492751854;0,5188146610919523
18:53:49.703;0;Wrist;1;72;10,28;0;0;0;0,478530228583636;0,2823328408249916;0,26079899246002075;-0,793481246375927;1,5564439832758568;0,4882961516159551
18:53:49.703;0;Wrist;1;73;10,28;0;0;0;0,42349924633587144;0,26558428878521073;0,2679769220461898;-1,2512588885158848;1,7700735496078372;0,5493331705679495
18:53:49.703;0;Wrist;1;74;10,28;0;0,5778252390934476;0;0,5778252390934476;0,3313821952154607;0,25720999786370435;-1,2207403790398876;1,6785180211798456;0,7019257179479355
18:53:49.703;0;Wrist;1;75;10,28;0;0;0;0,4952788104266488;0,26199529418889433;0,2464430736812189;-0,793481246375927;1,4343699453718681;0,793481246375927
18:53:49.730;0;Wrist;1;76;9,96;0;0,5000640769486069;0;0,5000640769486069;0,2703695851104007;0,19739371929074984;-0,5798516800439466;1,4954069643238623;0,793481246375927
18:53:49.730;0;Wrist;1;77;9,96;0;0,6974577962393567;0;0,6974577962393567;0,3433454509300516;0,21414228623214668;-0,5188146610919523;1,3122959074678793;0,7019257179479355
18:53:49.730;0;Wrist;1;78;9,96;0;0,5598803555215613;0;0,5598803555215613;0,27635121296769616;0,2440504255186239;-0,8850367748039186;1,403851435895871;0,5493331705679495
18:53:49.730;0;Wrist;1;79;9,96;0;0;0;0,42110661307489244;0,236872466129223;0,2512283700064089;-0,8850367748039186;1,6174810022278512;0,21362956633198035
18:53:49.730;0;Wrist;1;80;9,96;0;0,5897884948080385;0;0,5897884948080385;0,2859218056180761;0,2560136663315989;-0,5493331705679495;1,6785180211798456;0
18:53:49.739;0;Mov;1;96;9,96;0;0;0;0,052638326634361556;0,236872466129223;0,07536851398224585;0,4882961516159551;0,640888698995941;0,9460737937559129
18:53:49.739;0;Mov;1;97;9,96;0;0;0;0,04426404688906713;0,2560136663315989;0,0837427900021363;0,7324442274239327;0,5493331705679495;1,2207403790398876
18:53:49.739;0;Mov;1;98;9,96;0;0;0;-0,06101260637965598;0,3433454509300516;0,09092074194072924;0,9155552842799157;0,4882961516159551;1,3428144169438765
18:53:49.739;0;Mov;1;99;9,96;0;0;0;-0,03349711525577372;0,3014740559289834;0,08254646592083881;0,793481246375927;0,4882961516159551;1,2207403790398876
18:53:49.739;0;Mov;1;100;9,96;0;0;0;-0,03349711525577372;0,26917325357829525;0,07297585836884289;0,7629627368999298;0,21362956633198035;1,403851435895871
18:53:49.769;0;Mov;1;101;9,76;0;0;0;0,003588976900647469;0,297885061332667;0,08613544561553926;0,9460737937559129;0,09155552842799158;1,7090365306558428
18:53:49.769;0;Mov;1;102;9,76;0;0;0;0,025122837373181287;0,2942960965395825;0,10168767357402264;0,9155552842799157;0,030518509475997192;1,5259254737998595
18:53:49.769;0;Mov;1;103;9,76;0;0;0;-0,028711815205179753;0,3146336431756798;0,07417218990094836;0,8850367748039186;0;1,403851435895871
18:53:49.769;0;Mov;1;104;9,76;0;0;0;0,0011963255947428648;0,35291604358043155;0,06220893046095347;0,793481246375927;0;1,281777397991882
18:53:49.769;0;Mov;1;105;9,76;0;0;0;-0,00837427881394343;0,290707131746498;0,08493911408343378;0,6714072084719382;0,09155552842799158;1,2512588885158848
18:53:49.790;0;Wrist;1;81;10,1;0;0,5921811578722496;0;0,5921811578722496;0,32061527103297527;0,239265114291818;-0,3967406231879635;1,4648884548478653;0
18:53:49.790;0;Wrist;1;82;10,1;0;0,537150205427717;0;0,537150205427717;0,3014740559289834;0,2153386028626362;-0,5188146610919523;1,4343699453718681;-0,09155552842799158
18:53:49.790;0;Wrist;1;83;10,1;0;0,5108310309343241;0;0,5108310309343241;0,25720999786370435;0,2129459547000412;-0,6714072084719382;1,403851435895871;-0,21362956633198035
18:53:49.791;0;Wrist;1;84;10,1;0;0,5443281350138859;0;0,5443281350138859;0,30386668918996246;0,22012391408944212;-0,640888698995941;1,2512588885158848;-0,18311105685598317
18:53:49.791;0;Wrist;1;85;10,1;0;0,5192053218558306;0;0,5192053218558306;0,28831446868228705;0,19260842296555986;-0,7019257179479355;1,1597033600878932;-0,18311105685598317
18:53:49.828;0;Mov;1;106;9,86;0;0;0;0,026319163317180778;0,31582994490455335;0,117239908983314;0,5493331705679495;0;1,1291848506118962
18:53:49.828;0;Mov;1;107;9,86;0;0;0;0,020337535459885328;0,3170262764366588;0,09092074194072924;0,5188146610919523;0,24414807580797754;1,1597033600878932
18:53:49.828;0;Mov;1;108;9,86;0;0;0;0,0023926511894857296;0,2273018585772271;0,08135014183954131;0,5188146610919523;0,24414807580797754;1,1291848506118962
18:53:49.828;0;Mov;1;109;9,86;0;0;0;-0,0023926511894857296;0,2775475444998016;0,09092074194072924;0,7324442274239327;0,3051850947599719;1,1902218695638904
18:53:49.828;0;Mov;1;110;9,86;0;0;0;-0,019141209515885837;0,29190343347537157;0,10049134949272515;0,5493331705679495;0,3357036042359691;1,2512588885158848
18:53:49.852;0;Wrist;1;86;10,22;0;0,6065370766510514;0;0,6065370766510514;0,31224098011146884;0,23089083827192755;-0,7629627368999298;1,1902218695638904;-0,15259254737998595
18:53:49.852;0;Wrist;1;87;10,22;0;0;0;0,4928861473624378;0,34932707878734703;0,20816065837485123;-1,2512588885158848;1,281777397991882;-0,061037018951994385
18:53:49.852;0;Wrist;1;88;10,22;0;0;0;0,4223029446069979;0,2859218056180761;0,26438795725310527;-1,8616290780358287;1,403851435895871;0
18:53:49.852;0;Wrist;1;89;10,22;0;0;0;0,4055543627639851;0,2871181371501816;0,22849819010933256;-2,166814172795801;1,2512588885158848;-0,061037018951994385
18:53:49.852;0;Wrist;1;90;10,22;0;0;0;0,44144412990775783;0,28113650929288614;0,22012391408944212;-2,1362956633198036;1,098666341135899;-0,3357036042359691
18:53:49.857;0;Mov;1;111;9,68;0;0;0;0,014355907602589877;0,30386668918996246;0,10168767357402264;0,5798516800439466;0,18311105685598317;1,2207403790398876
18:53:49.857;0;Mov;1;112;9,68;0;0;0;-0,00837427881394343;0,3194189395008698;0,0945097216354297;0,4882961516159551;0,21362956633198035;1,281777397991882
18:53:49.857;0;Mov;1;113;9,68;0;0;0;-0,04546037097036462;0,30027772439687794;0,09211707347283471;0,5188146610919523;0,12207403790398877;1,2512588885158848
18:53:49.857;0;Mov;1;114;9,68;0;0;0;-0,026319163317180778;0,30745568378627885;0,09929502541142765;0,3967406231879635;0,24414807580797754;1,098666341135899
18:53:49.857;0;Mov;1;115;9,68;0;0;0;-0,021533861403884816;0,29549242807168796;0,09211707347283471;0,3357036042359691;0,3967406231879635;0,9765923032319102
18:53:49.884;0;Wrist;1;91;10,02;0;0,5299722162350841;0;0,5299722162350841;0,2715659166425062;0,234479817966628;-1,9837031159398175;0,9155552842799157;-0,36622211371196634
18:53:49.884;0;Wrist;1;92;10,02;0;0;0;0,4845118564409314;0,2512283700064089;0,24165777735602892;-1,7700735496078372;0,793481246375927;-0,3967406231879635
18:53:49.885;0;Wrist;1;93;10,02;0;0;0;0,48929718256935334;0,23806879766132846;0,236872466129223;-1,4648884548478653;0,8239997558519242;-0,45777764213995786
18:53:49.885;0;Wrist;1;94;10,02;0;0,5682546464430677;0;0,5682546464430677;0,2560136663315989;0,25362103307061984;-1,0681478316599018;0,8545182653279214;-0,24414807580797754
18:53:49.885;0;Wrist;1;95;10,02;0;0,5443281350138859;0;0,5443281350138859;0,26079899246002075;0,26079899246002075;-0,9460737937559129;0,8545182653279214;0,030518509475997192
18:53:49.919;0;Mov;1;116;9,79;0;0;0;0,01794488357188635;0,28831446868228705;0,0957060457167272;0,27466658528397475;0,3967406231879635;0,9460737937559129
18:53:49.919;0;Mov;1;117;9,79;0;0;0;0,003588976900647469;0,3026703874610889;0,0933133975541322;0,15259254737998595;0,36622211371196634;1,0376293221839046
18:53:49.919;0;Mov;1;118;9,79;0;0;0;-0,00598162785729545;0,30386668918996246;0,09929502541142765;0,12207403790398877;0,4882961516159551;0,9155552842799157
18:53:49.919;0;Mov;1;119;9,79;0;0;0;-0,0011963255947428648;0,3134373116435743;0,09690236979802469;0,09155552842799158;0,45777764213995786;0,640888698995941
18:53:49.919;0;Mov;1;120;9,79;0;0;0;-0,003588976900647469;0,30745568378627885;0,08254646592083881;-0,09155552842799158;0,45777764213995786;0,4272591326639607
18:53:49.941;0;Wrist;1;96;10,08;0;0;0;0,4976714436876278;0,2488357218438139;0,23567614949873347;-0,8545182653279214;0,8545182653279214;0,12207403790398877
18:53:49.941;0;Wrist;1;97;10,08;0;0;0;0,4964751121555223;0,27635121296769616;0,23208716980403302;-0,7629627368999298;0,9155552842799157;0,18311105685598317
18:53:49.941;0;Wrist;1;98;10,08;0;0;0;0,45938904328287605;0,24165777735602892;0,21773125102523117;-0,9155552842799157;0,8545182653279214;0,3357036042359691
18:53:49.941;0;Wrist;1;99;10,08;0;0;0;0,4881008510372478;0,2560136663315989;0,239265114291818;-0,8545182653279214;0,7019257179479355;0,3357036042359691
18:53:49.941;0;Wrist;1;100;10,08;0;0;0;0,4952788104266488;0,21174962316793572;0,2560136663315989;-0,6103701895199438;0,4882961516159551;0,27466658528397475
18:53:49.970;0;Wrist;1;101;9,87;0;0,5873958913502915;0;0,5873958913502915;0,26199529418889433;0,22849819010933256;-0,030518509475997192;0,4272591326639607;0,21362956633198035
18:53:49.970;0;Wrist;1;102;9,87;0;0,5550950889996032;0;0,5550950889996032;0,22610554194673757;0,239265114291818;0,3357036042359691;0,3051850947599719;0,45777764213995786
18:53:49.971;0;Wrist;1;103;9,87;0;0,5706473095072787;0;0,5706473095072787;0,2464430736812189;0,23208716980403302;0,6714072084719382;0,21362956633198035;1,098666341135899
18:53:49.971;0;Wrist;1;104;9,87;0;0;0;0,45938904328287605;0,2488357218438139;0,234479817966628;0,793481246375927;0,3357036042359691;1,5564439832758568
18:53:49.971;0;Wrist;1;105;9,87;0;0;0;0,415124985217597;0,2153386028626362;0,2249092104146321;0,3051850947599719;0,18311105685598317;1,6174810022278512
18:53:49.978;0;Mov;1;121;9,89;0;0;0;0,015552232615238368;0,2775475444998016;0,0717795342875454;-0,12207403790398877;0,4882961516159551;0,12207403790398877
18:53:49.978;0;Mov;1;122;9,89;0;0;0;0,009570604757942918;0,27635121296769616;0,0837427900021363;-0,21362956633198035;0,7019257179479355;0
18:53:49.978;0;Mov;1;123;9,89;0;0;0;0,01794488357188635;0,26199529418889433;0,0957060457167272;-0,3357036042359691;1,0681478316599018;0,061037018951994385
18:53:49.979;0;Mov;1;124;9,89;0;0;0;0,007177953801294938;0,29190343347537157;0,09092074194072924;-0,45777764213995786;1,4343699453718681;0,21362956633198035
18:53:49.979;0;Mov;1;125;9,89;0;0;0;0,0346934430624752;0,2739585499034852;0,12800683316579944;-0,7324442274239327;2,1057771538438064;0,8239997558519242
18:53:50.007;0;Mov;1;126;9,72;0;0;0;0,0466566987770661;0,2153386028626362;0,1507370279644917;-0,4882961516159551;3,3875545518356884;1,9837031159398175
18:53:50.008;0;Mov;1;127;9,72;0;0;0;0,021533861403884816;0,25362103307061984;0,117239908983314;-0,15259254737998595;3,6011841181676685;1,9837031159398175
18:53:50.008;0;Mov;1;128;9,72;0;0;0;-0,052638326634361556;0,297885061332667;0,119632557145909;-0,030518509475997192;4,211554307687613;1,9531846064638203
18:53:50.008;0;Mov;1;129;9,72;0;0;0;-0,01794488357188635;0,24165777735602892;0,08254646592083881;0,3357036042359691;5,1576281014435255;1,4954069643238623
18:53:50.008;0;Mov;1;130;9,72;0;0;0;-0,01674855762788686;0,34932707878734703;0,06220893046095347;0,5493331705679495;5,493331705679495;0,8545182653279214
18:53:50.030;0;Wrist;1;106;9,97;0;0;0;0,48929718256935334;0,290707131746498;0,18303781541356395;0,21362956633198035;0;1,7090365306558428
18:53:50.030;0;Wrist;1;107;9,97;0;0;0;0,4928861473624378;0,20816065837485123;0,22969452164143803;0,030518509475997192;-0,3051850947599719;1,9837031159398175
18:53:50.030;0;Wrist;1;108;9,97;0;0,5263832514419996;0;0,5263832514419996;0,20337534714804528;0,2488357218438139;0,15259254737998595;-0,3967406231879635;2,380443739127781
18:53:50.030;0;Wrist;1;109;9,97;0;0,5945738209364605;0;0,5945738209364605;0,35650503817674795;0,22371287888252664;0,4272591326639607;-0,45777764213995786;2,8992584002197335
18:53:50.030;0;Wrist;1;110;9,97;0;0;0;0,44862208929715874;0,16868191153637807;0,2739585499034852;0,3967406231879635;-0,640888698995941;3,051850947599719
18:53:50.069;0;Mov;1;131;9,82;0;0;0;0,12681051653530992;0,3026703874610889;0,07776116214484084;0,5798516800439466;5,340739158299509;-0,12207403790398877
18:53:50.069;0;Mov;1;132;9,82;0;0;0;0,05383465071565905;0,43546250205046233;0,1076693014313181;0,18311105685598317;5,096591082491531;-0,5798516800439466
18:53:50.069;0;Mov;1;133;9,82;0;0;0;-0,014355907602589877;0,3517197120483261;0,1076693014313181;-0,5493331705679495;5,4322946867275;-0,7324442274239327
18:53:50.069;0;Mov;1;134;9,82;0;0;0;-0,026319163317180778;0,2153386028626362;0,06101260637965598;-0,5188146610919523;5,798516800439467;-1,3733329264198737
18:53:50.069;0;Mov;1;135;9,82;0;0;0;-0,026319163317180778;0,21414228623214668;0,06579790643024995;-0,24414807580797754;5,584887234107486;-1,403851435895871
18:53:50.091;0;Wrist;1;111;10,07;0;0;0;0,36487929929502244;0,25720999786370435;0,21773125102523117;0,061037018951994385;-0,8545182653279214;2,6551103244117558
18:53:50.091;0;Wrist;1;112;10,07;0;0;0;0,478530228583636;0,33257852674756616;0,21174962316793572;0,15259254737998595;-0,8850367748039186;2,380443739127781
18:53:50.091;0;Wrist;1;113;10,07;0;0;0;0,478530228583636;0,2512283700064089;0,24285409398651844;0,3357036042359691;-0,8545182653279214;2,410962248603778
18:53:50.091;0;Wrist;1;114;10,07;0;0,5263832514419996;0;0,5263832514419996;0,26199529418889433;0,2584063293958098;0,9460737937559129;-0,7629627368999298;1,8921475875118259
18:53:50.091;0;Wrist;1;115;10,07;0;0,527579612777337;0;0,527579612777337;0,1411664204124958;0,2703695851104007;2,0142216254158147;-0,9155552842799157;1,4648884548478653
18:53:50.120;0;Wrist;1;116;9,89;0;0,525186949713126;0;0,525186949713126;0,24165777735602892;0,2823328408249916;3,1434064760277107;-1,0681478316599018;1,3122959074678793
18:53:50.120;0;Wrist;1;117;9,89;0;0;0;0,4546037171544542;0,22969452164143803;0,2871181371501816;3,4180730613116856;-0,8850367748039186;-0,27466658528397475
18:53:50.120;0;Wrist;1;118;9,89;0;0,5299722162350841;0;0,5299722162350841;0,29549242807168796;0,23208716980403302;4,150517288735618;-0,8850367748039186;-0,4272591326639607
18:53:50.120;0;Wrist;1;119;9,89;0;0,6412305420659505;0;0,6412305420659505;0,2715659166425062;0,22849819010933256;4,333628345591602;-1,0376293221839046;-0,24414807580797754
18:53:50.120;0;Wrist;1;120;9,89;0;0,5682546464430677;0;0,5682546464430677;0,22012391408944212;0,2476394052133244;4,089480269783624;-1,098666341135899;-0,27466658528397475
18:53:50.129;0;Mov;1;136;9,9;0;0;0;-0,020337535459885328;0,18423414694566942;0,07656483806354335;0,27466658528397475;5,127109591967528;-1,4954069643238623
18:53:50.129;0;Mov;1;137;9,9;0;0;0;-0,0346934430624752;0,2488357218438139;0,10527665326872311;0,793481246375927;5,3102206488235115;-1,3733329264198737
18:53:50.129;0;Mov;1;138;9,9;0;0;0;-0,0717795342875454;0,24046144582392345;0,09092074194072924;1,73955504013184;5,676442762535478;-1,2207403790398876
18:53:50.129;0;Mov;1;139;9,9;0;0;0;-0,09929502541142765;0,3146336431756798;0,10408032918742562;2,3499252296517836;5,981627857295449;-1,281777397991882
18:53:50.129;0;Mov;1;140;9,9;0;0;0;-0,12322153684060945;0,3660756308271279;0,0957060457167272;2,5025177770317697;6,2868129520554215;-1,3428144169438765
18:53:50.158;0;Mov;1;141;9,76;0;0;0;-0,027515489261180266;0,2703695851104007;0,08135014183954131;2,9602954191717274;6,500442518387402;-1,3428144169438765
18:53:50.159;0;Mov;1;142;9,76;0;0;0;-0,00837427881394343;0,290707131746498;0,052638326634361556;3,051850947599719;6,347849971007416;-1,5259254737998595
18:53:50.159;0;Mov;1;143;9,76;0;0;0;-0,0023926511894857296;0,29668875960379343;0,06101260637965598;2,2583697012237924;5,706961272011475;-1,73955504013184
18:53:50.159;0;Mov;1;144;9,76;0;0;0;-0,0358897671437727;0,3026703874610889;0,08493911408343378;2,166814172795801;5,401776177251503;-1,922666096987823
18:53:50.159;0;Mov;1;145;9,76;0;0;0;-0,0478530228583636;0,29190343347537157;0,07297585836884289;1,6174810022278512;5,127109591967528;-1,8616290780358287
18:53:50.180;0;Wrist;1;121;9,98;0;0,5215979849200415;0;0,5215979849200415;0,23567614949873347;0,2129459547000412;4,1810357982116155;-1,1291848506118962;-0,3051850947599719
18:53:50.180;0;Wrist;1;122;9,98;0;0,6280709250160222;0;0,6280709250160222;0,32540056735816525;0,21055330653744622;4,1810357982116155;-1,098666341135899;-0,21362956633198035
18:53:50.180;0;Wrist;1;123;9,98;0;0,644819506859035;0;0,644819506859035;0,42349924633587144;0,19500107112815485;3,448591570787683;-0,9460737937559129;-0,4272591326639607
18:53:50.180;0;Wrist;1;124;9,98;0;0;0;0,4665669728690451;0,3086520153183844;0,1985900508228553;2,7466658528397474;-1,1291848506118962;-0,7019257179479355
18:53:50.181;0;Wrist;1;125;9,98;0;0,5192053218558306;0;0,5192053218558306;0,34095278786584066;0,16389660030957212;2,3499252296517836;-1,2207403790398876;-0,6714072084719382
18:53:50.218;0;Mov;1;146;9,85;0;0;0;-0,00598162785729545;0,234479817966628;0,10288399765532014;1,098666341135899;4,821924497207556;-1,7090365306558428
18:53:50.219;0;Mov;1;147;9,85;0;0;0;-0,04426404688906713;0,29668875960379343;0,05024567474636257;0,36622211371196634;4,638813440351573;-1,7700735496078372
18:53:50.219;0;Mov;1;148;9,85;0;0;0;0;0,236872466129223;0,028711815205179753;0;4,364146855067599;-1,6785180211798456
18:53:50.219;0;Mov;1;149;9,85;0;0;0;0,0023926511894857296;0,3337748284764397;0,0705832102062479;-0,4272591326639607;3,7537766655476545;-1,5564439832758568
18:53:50.221;0;Mov;1;150;9,85;0;0;0;-0,03708609495047418;0,32420423582605973;0,06220893046095347;-0,8850367748039186;3,5096285897396773;-1,6174810022278512
18:53:50.242;0;Wrist;1;126;10,07;0;0,5383465071565905;0;0,5383465071565905;0,33257852674756616;0,17825251908837397;1,6174810022278512;-1,098666341135899;-0,640888698995941
18:53:50.242;0;Wrist;1;127;10,07;0;0,5479170998069705;0;0,5479170998069705;0,31582994490455335;0,21055330653744622;1,0071108127079074;-1,1291848506118962;-0,6103701895199438
18:53:50.242;0;Wrist;1;128;10,07;0;0,5562913907284768;0;0,5562913907284768;0,34573808419103064;0,22371287888252664;0,6103701895199438;-1,1291848506118962;-0,793481246375927
18:53:50.242;0;Wrist;1;129;10,07;0;0,5431318332850124;0;0,5431318332850124;0,3361674915406507;0,21055330653744622;0,3967406231879635;-1,3122959074678793;-1,0071108127079074
18:53:50.242;0;Wrist;1;130;10,07;0;0,515616357062746;0;0,515616357062746;0,297885061332667;0,20816065837485123;-0,24414807580797754;-1,1902218695638904;-1,098666341135899
18:53:50.271;0;Wrist;1;131;9,91;0;0,5287759145062105;0;0,5287759145062105;0,29190343347537157;0,20816065837485123;-0,45777764213995786;-1,2207403790398876;-1,1291848506118962
18:53:50.271;0;Wrist;1;132;9,91;0;0,5180089605204932;0;0,5180089605204932;0,23328348643452254;0,21773125102523117;-0,6714072084719382;-1,0681478316599018;-1,1597033600878932
18:53:50.271;0;Wrist;1;133;9,91;0;0,5455244963492233;0;0,5455244963492233;0,26079899246002075;0,20457167868015075;-0,8239997558519242;-0,9765923032319102;-1,2512588885158848
18:53:50.272;0;Wrist;1;134;9,91;0;0,5359538440923796;0;0,5359538440923796;0,2440504255186239;0,25362103307061984;-0,9765923032319102;-0,8850367748039186;-1,3733329264198737
18:53:50.272;0;Wrist;1;135;9,91;0;0,5263832514419996;0;0,5263832514419996;0,26199529418889433;0,24165777735602892;-0,8545182653279214;-0,7629627368999298;-1,4648884548478653
18:53:50.278;0;Mov;1;151;9,9;0;0;0;-0,09211707347283471;0,4091433573603015;0,03349711525577372;-1,6479995117038484;2,8992584002197335;-1,6785180211798456
18:53:50.278;0;Mov;1;152;9,9;0;0;0;-0,0693868861249504;0,3062593522541734;0,004785302378971459;-2,288888210699789;2,4719992675557725;-1,586962492751854
18:53:50.278;0;Mov;1;153;9,9;0;0;0;0,0011963255947428648;0,31224098011146884;0,014355907602589877;-2,1057771538438064;2,075258644367809;-1,7090365306558428
18:53:50.278;0;Mov;1;154;9,9;0;0;0;0,013159581658590389;0,38043154960592973;0,0011963255947428648;-2,4414807580797753;1,403851435895871;-1,922666096987823
18:53:50.278;0;Mov;1;155;9,9;0;0;0;0,013159581658590389;0,28472550388920254;0,004785302378971459;-2,8992584002197335;0,7019257179479355;-2,1057771538438064
18:53:50.333;0;Wrist;1;136;10;0;0,5383465071565905;0;0,5383465071565905;0,32061527103297527;0,20217903051755579;-0,8850367748039186;-0,6103701895199438;-1,6785180211798456
18:53:50.333;0;Wrist;1;137;10;0;0,5538987276642658;0;0,5538987276642658;0,26558428878521073;0,21174962316793572;-1,1597033600878932;-0,36622211371196634;-1,8311105685598315
18:53:50.333;0;Wrist;1;138;10;0;0,5263832514419996;0;0,5263832514419996;0,33975645633373514;0,20457167868015075;-0,8850367748039186;-0,24414807580797754;-2,075258644367809
18:53:50.333;0;Wrist;1;139;10;0;0,5443281350138859;0;0,5443281350138859;0,27635121296769616;0,23089083827192755;-0,8545182653279214;-0,09155552842799158;-2,197332682271798
18:53:50.333;0;Wrist;1;140;10;0;0,525186949713126;0;0,525186949713126;0,2799401777607807;0,22610554194673757;-0,45777764213995786;0,09155552842799158;-2,838221381267739
18:53:50.338;0;Mov;1;156;9,97;0;0;0;0,04306772280776963;0,3469344157231361;0,010766930701942408;-3,2349620044557024;0,3051850947599719;-2,563554795983764
18:53:50.338;0;Mov;1;157;9,97;0;0;0;0,02273018548518231;0,35650503817674795;0,003588976900647469;-3,357036042359691;0,09155552842799158;-2,9297769096957307
18:53:50.338;0;Mov;1;158;9,97;0;0;0;0,07895748622613834;0,2787438760319071;-0,0011963255947428648;-3,47911008026368;-0,24414807580797754;-3,357036042359691
18:53:50.338;0;Mov;1;159;9,97;0;0;0;0,07656483806354335;0,3170262764366588;0;-3,4180730613116856;-0,6103701895199438;-4,0284432508316295
18:53:50.338;0;Mov;1;160;9,97;0;0;0;0,0466566987770661;0,34573808419103064;-0,014355907602589877;-2,9602954191717274;-0,9155552842799157;-4,7303689687795645
18:53:50.370;0;Mov;1;161;9,86;0;0;0;-0,015552232615238368;0,33736382307275614;0;-2,71614734336375;-1,281777397991882;-5,462813196203498
18:53:50.370;0;Mov;1;162;9,86;0;0;0;-0,0346934430624752;0,2799401777607807;-0,019141209515885837;-2,4719992675557725;-1,7090365306558428;-5,951109347819452
18:53:50.370;0;Mov;1;163;9,86;0;0;0;-0,014355907602589877;0,27635121296769616;-0,027515489261180266;-2,4414807580797753;-2,197332682271798;-6,561479537339396
18:53:50.370;0;Mov;1;164;9,86;0;0;0;0,004785302378971459;0,3337748284764397;-0,03230079117447623;-2,533036286507767;-2,8992584002197335;-7,080294198431349
18:53:50.370;0;Mov;1;165;9,86;0;0;0;-0,10168767357402264;0,354112375112537;-0,056227302603658026;-2,7771843623157446;-3,47911008026368;-7,507553331095309
18:53:50.400;0;Wrist;1;141;10,12;0;0,5168126587916196;0;0,5168126587916196;0,34573808419103064;0,24046144582392345;-0,5188146610919523;0,27466658528397475;-3,051850947599719
18:53:50.400;0;Wrist;1;142;10,12;0;0;0;0,47254860072634053;0,2859218056180761;0,26438795725310527;-0,18311105685598317;0,18311105685598317;-3,1128879665517135
18:53:50.400;0;Wrist;1;143;10,12;0;0,541935471949675;0;0,541935471949675;0,4270882409321879;0,234479817966628;0,3967406231879635;0,3051850947599719;-3,47911008026368
18:53:50.400;0;Wrist;1;144;10,12;0;0,5072420661412397;0;0,5072420661412397;0,44383679297196876;0,2476394052133244;0,5798516800439466;0,3051850947599719;-3,6011841181676685
18:53:50.400;0;Wrist;1;145;10,12;0;0;0;0,49408247889454326;0,40316172950300605;0,3026703874610889;1,0071108127079074;0,793481246375927;-3,7537766655476545
18:53:50.433;0;Mov;1;166;9,94;0;0;0;-0,07417218990094836;0,3744499217486343;-0,07776116214484084;-2,838221381267739;-4,119998779259621;-8,239997558519242
18:53:50.433;0;Mov;1;167;9,94;0;0;0;-0,0011963255947428648;0,4007690664387951;-0,02273018548518231;-2,838221381267739;-4,852443006683553;-9,186071352275155
18:53:50.433;0;Mov;1;168;9,94;0,5658619833788567;0;0;-0,07417218990094836;0,5658619833788567;0,009570604757942918;-2,838221381267739;-5,706961272011475;-9,582811975463118
18:53:50.433;0;Mov;1;169;9,94;0;0;0;-0,027515489261180266;0,33018586368335523;0,00598162785729545;-2,9602954191717274;-6,591998046815394;-8,728293710135198
18:53:50.433;0;Mov;1;170;9,94;0;0;0;0,0358897671437727;0,34573808419103064;0,02273018548518231;-3,1434064760277107;-7,690664387951292;-7,507553331095309
18:53:50.451;0;Wrist;1;146;10,12;0;0;0;0,3971801016457106;0,48211922317995237;0,3289895321512497;1,7700735496078372;1,3733329264198737;-4,211554307687613
18:53:50.451;0;Wrist;1;147;10,12;0,5012604382839442;0;0;0,35291604358043155;0,5012604382839442;0,38760947919209876;2,5025177770317697;2,044740134891812;-4,699850459303567
18:53:50.451;0;Wrist;1;148;10,12;0,6424268437948241;0;0;0,44862208929715874;0,6424268437948241;0,4258919094000824;3,357036042359691;3,3875545518356884;-5,249183629871517
18:53:50.451;0;Wrist;1;149;10,12;0,8505875170712912;0,7477034821619312;0;0,7477034821619312;0,8505875170712912;0,43546250205046233;3,2349620044557024;5,645924253059481;-5,829035309915464
18:53:50.451;0;Wrist;1;150;10,12;0,6986541575746941;1,1484725486007263;0,522794286648915;1,1484725486007263;0,6986541575746941;0,522794286648915;2,4719992675557725;8,758812219611194;-6,805627613147374
18:53:50.472;0;Mov;1;171;9,88;0;0;0;-0,014355907602589877;0,34454178246215705;0,05503097852236053;-3,173924985503708;-8,758812219611194;-6,042664876247444
18:53:50.472;0;Mov;1;172;9,88;0;0;0;0,007177953801294938;0,2739585499034852;0,05144199882766007;-3,4180730613116856;-9,24710837122715;-4,791405987731559
18:53:50.472;0;Mov;1;173;9,88;0;0;0;-0,07895748622613834;0,1818414838814585;0,058619954491657;-3,69273964659566;-9,002960295419172;-4,333628345591602
18:53:50.472;0;Mov;1;174;9,88;0;0;0;0,021533861403884816;0,22132023071993165;0,08733176969683676;-3,5706656086916717;-8,57570116275521;-4,272591326639607
18:53:50.472;0;Mov;1;175;9,88;0;0;0;0,02273018548518231;0,2703695851104007;0,16270028367908262;-3,5401470992156745;-7,9958494827112645;-4,211554307687613
18:53:50.511;0;Wrist;1;151;10,19;1,0216620618686483;1,381756035035249;0,6400341807306131;1,381756035035249;1,0216620618686483;0,6400341807306131;1,3733329264198737;13,550218207342754;-9,002960295419172
18:53:50.511;0;Wrist;1;152;10,19;1,4762657790231024;1,5468490115817743;0,8469984926717429;1,5468490115817743;1,4762657790231024;0,8469984926717429;-1,7700735496078372;20,477919858394117;-11,658070619830928
18:53:50.511;0;Wrist;1;153;10,19;1,8471267061754204;1,575560849139378;1,1556504781868953;1,575560849139378;1,8471267061754204;1,1556504781868953;-6,897183141575366;29,633472701193273;-14,801477095858639
18:53:50.512;0;Wrist;1;154;10,19;2,366332028031251;1,5827387787255471;1,4056825464644307;1,5827387787255471;2,366332028031251;1,4056825464644307;-14,007995849482711;40,89480269783624;-18,70784630878628
18:53:50.512;0;Wrist;1;155;10,19;1,8854091959898678;1,4331980822931607;1,775347171887875;1,4331980822931607;1,8854091959898678;1,775347171887875;-22,522659993285927;53,37687307351909;-22,125919370097964
18:53:50.518;0;Mov;1;176;9,86;0;0;0;0,01794488357188635;0,29668875960379343;0,18543046357615894;-3,814813684499649;-6,95822016052736;-4,608294930875576
18:53:50.518;0;Mov;1;177;9,86;0;0;0;0,015552232615238368;0,28472550388920254;0,17825251908837397;-4,333628345591602;-5,829035309915464;-4,852443006683553
18:53:50.518;0;Mov;1;178;9,86;0;0;0;-0,0346934430624752;0,239265114291818;0,21174962316793572;-5,1576281014435255;-4,66933194982757;-5,066072573015534
18:53:50.518;0;Mov;1;179;9,86;0;0;0;-0,08972441785943175;0,1531296761270867;0,1543260076591922;-5,493331705679495;-3,2654805139316996;-5,005035554063539
18:53:50.518;0;Mov;1;180;9,86;0;0;0;-0,08493911408343378;0,07895748622613834;0,1184362330646115;-5,127109591967528;-2,075258644367809;-4,4557023834955904
18:53:50.540;0;Wrist;1;156;10,05;0;1,2992095467619862;2,3759026802880947;1,2992095467619862;-0,12561418500320445;2,3759026802880947;-28,04651020844142;65,43168431653798;-26,245918149357585
18:53:50.540;0;Wrist;1;157;10,05;-2,259859147541734;1,894979729033784;3,2360606707968382;1,894979729033784;-2,259859147541734;3,2360606707968382;-22,217474898525957;75,62486648152104;-32,28858302560503
18:53:50.540;0;Wrist;1;158;10,05;0;2,103140402310251;3,0925016022217475;2,103140402310251;0,234479817966628;3,0925016022217475;-9,67436750389111;79,59227271340067;-38,42280343028047
18:53:50.540;0;Wrist;1;159;10,05;4,438367870113224;1,4989959887234108;2,977654490417188;1,4989959887234108;4,438367870113224;2,977654490417188;-6,622516556291391;78,2189397869808;-42,60383922849208
18:53:50.540;0;Wrist;1;160;10,05;5,927793206579791;3,3425337897122103;3,4490066702017272;3,3425337897122103;5,927793206579791;3,4490066702017272;-15,900143436994536;70,86397900326548;-45,38102359080783
18:53:50.573;0;Wrist;1;161;9,93;4,695577867976928;5,71843623157445;3,459773504974517;5,71843623157445;4,695577867976928;3,459773504974517;-22,8278450880459;55,4216132084109;-41,53569139683218
18:53:50.573;0;Wrist;1;162;9,93;5,74116632206183;6,3895749725333415;3,420294951857051;6,3895749725333415;5,74116632206183;3,420294951857051;-16,693624683370466;36,68324839014863;-39,39939573351238
18:53:50.573;0;Wrist;1;163;9,93;7,3956848735007785;8,212775048066652;2,337620309686575;8,212775048066652;7,3956848735007785;2,337620309686575;-7,324442274239326;19,89806817835017;-35,24887844477676
18:53:50.573;0;Wrist;1;164;9,93;7,573937288277841;8,377867786187323;1,6868190557573168;8,377867786187323;7,573937288277841;1,6868190557573168;0,27466658528397475;9,216589861751151;-22,06488235114597
18:53:50.573;0;Wrist;1;165;9,93;6,997308172093875;8,333604503006073;1,7262978473006378;8,333604503006073;6,997308172093875;1,7262978473006378;9,460737937559129;1,1291848506118962;-5,951109347819452
18:53:50.577;0;Mov;1;181;9,92;0;0;0;-0,13638112408730582;0,1184362330646115;0,1076693014313181;-4,211554307687613;-0,9765923032319102;-3,845332193975646
18:53:50.578;0;Mov;1;182;9,92;0;0;0;-0,058619954491657;0,16389660030957212;0,08733176969683676;-2,8992584002197335;-0,24414807580797754;-3,0823694570757163
18:53:50.578;0;Mov;1;183;9,92;0;0;0;-0,04546037097036462;0,28831446868228705;0,0693868861249504;-2,3194067201757864;0;-2,4414807580797753
18:53:50.578;0;Mov;1;184;9,92;0;0;0;0,0023926511894857296;0,4928861473624378;0,0945097216354297;-2,5940733054597613;0,12207403790398877;-2,3499252296517836
18:53:50.578;0;Mov;1;185;9,92;0;0;0;0,01794488357188635;0,4976714436876278;0,08972441785943175;-3,3875545518356884;0,5493331705679495;-2,380443739127781
18:53:50.661;0;Wrist;1;166;10,17;6,364452040162359;8,929374446852016;1,5229225001525926;8,929374446852016;6,364452040162359;1,5229225001525926;20,29480880153813;-7,72118289742729;9,063997314371166
18:53:50.661;0;Wrist;1;167;10,17;5,309293172246467;8,953300958281197;1,5073702200384533;8,953300958281197;5,309293172246467;1,5073702200384533;30,579546494949188;-15,472884304330577;21,271401104770042
18:53:50.661;0;Wrist;1;168;10,17;4,530485129856258;8,393420781579028;1,8854091959898678;8,393420781579028;4,530485129856258;1,8854091959898678;38,23969237342448;-24,14014099551378;30,671102023377177
18:53:50.661;0;Wrist;1;169;10,17;3,6140996467482527;7,77133100756859;2,0887845431379133;7,77133100756859;3,6140996467482527;2,0887845431379133;41,566209906308174;-36,37806329538866;36,68324839014863
18:53:50.661;0;Wrist;1;170;10,17;3,0745567186498612;6,994915807061983;2,168938308740501;6,994915807061983;3,0745567186498612;2,168938308740501;42,26813562425611;-49,745170445875424;39,85717337565233
18:53:50.667;0;Mov;1;186;10,14;0;0;0;0,020337535459885328;0,417517618478576;0,0693868861249504;-4,0284432508316295;0,6103701895199438;-2,410962248603778
18:53:50.667;0;Mov;1;187;10,14;0;0;0;0,015552232615238368;0,44503312450407423;0,021533861403884816;-4,394665364543596;0,45777764213995786;-2,2583697012237924
18:53:50.668;0;Mov;1;188;10,14;0,5479170998069705;0;0;0,06579790643024995;0,5479170998069705;-0,0023926511894857296;-5,005035554063539;0,030518509475997192;-1,8311105685598315
18:53:50.668;0;Mov;1;189;10,14;0;0;0;0,1914120914334544;0,40435806103511157;-0,058619954491657;-5,523850215155492;-0,45777764213995786;-1,281777397991882
18:53:50.668;0;Mov;1;190;10,14;0;0;0;0,18423414694566942;0,16389660030957212;-0,0717795342875454;-4,974517044587542;-1,4343699453718681;-0,6103701895199438
18:53:50.670;0;Mov;1;191;9,88;0;0;0;0,020337535459885328;0,22969452164143803;-0,025122837373181287;-4,547257911923582;-3,357036042359691;-0,061037018951994385
18:53:50.670;0;Mov;1;192;9,88;0;0;0;0,0358897671437727;0,35291604358043155;-0,1387737722499008;-4,364146855067599;-5,371257667775506;-0,030518509475997192
18:53:50.670;0;Mov;1;193;9,88;0;0;0;0,28472550388920254;0,37205725868442335;-0,014355907602589877;-3,47911008026368;-5,920590838343455;0,6714072084719382
18:53:50.670;0;Mov;1;194;9,88;0;0;0;0,0011963255947428648;0,39119847378841516;0,0023926511894857296;-2,3499252296517836;-5,890072328867458;1,0071108127079074
18:53:50.670;0;Mov;1;195;9,88;0;0;0;-0,02273018548518231;0,08733176969683676;0,014355907602589877;-0,9155552842799157;-5,279702139347514;1,3122959074678793
18:53:50.690;0;Wrist;1;171;10,04;2,5314250045777764;5,80696422849208;2,355565193258461;5,80696422849208;2,5314250045777764;2,355565193258461;41,84087649159215;-63,0512405774102;41,53569139683218
18:53:50.691;0;Wrist;1;172;10,04;2,018201191366314;4,915701677755059;2,337620309686575;4,915701677755059;2,018201191366314;2,337620309686575;43,76354258857997;-74,73982970671712;42,11554307687612
18:53:50.691;0;Wrist;1;173;10,04;1,9799188207647938;3,817474993896298;2,4237557031464583;3,817474993896298;1,9799188207647938;2,4237557031464583;46,60176396984771;-84,38367870113224;42,26813562425611
18:53:50.691;0;Wrist;1;174;10,04;2,124674310281686;2,7108738402966397;2,154582449568163;2,7108738402966397;2,124674310281686;2,154582449568163;47,8225043488876;-93,60026856288339;43,94665364543596
18:53:50.691;0;Wrist;1;175;10,04;2,2335397942289497;1,8686606141468551;1,7920957537308877;1,8686606141468551;2,2335397942289497;1,7920957537308877;47,761467329935606;-97,99493392742698;48,066652424695576
18:53:50.720;0;Wrist;1;176;9,93;2,5194617488631854;0,9415082366595966;1,3865413611636708;0,9415082366595966;2,5194617488631854;1,3865413611636708;45,77776421399579;-98,02545243690298;55,20798364207892
18:53:50.722;0;Wrist;1;177;9,93;2,684554725409711;0;0,9738090390102847;0,1507370279644917;2,684554725409711;0,9738090390102847;41,44413586840419;-94,5158238471633;63,99731437116611
18:53:50.722;0;Wrist;1;178;9,93;2,718051650669881;-0,6268746232871486;0;-0,6268746232871486;2,718051650669881;0,3050630207220679;35,37095248268074;-86,88619647816401;73,24442274239325
18:53:50.722;0;Wrist;1;179;9,93;2,3890621185186314;-1,5133518478957488;0;-1,5133518478957488;2,3890621185186314;-0,16509293184167761;26,73421430097354;-73,85479293191321;81,91167943357647
18:53:50.722;0;Wrist;1;180;9,93;1,7478316360591448;-2,1569750530259104;0;-2,1569750530259104;1,7478316360591448;-0,2440504255186239;17,853328043458358;-58,442945646534625;89,60234382152775
18:53:50.736;0;Mov;1;196;9,97;0;0;0;-0,20457167868015075;0,3816278513348033;0,0717795342875454;0,4882961516159551;-4,4557023834955904;0,7629627368999298
18:53:50.736;0;Mov;1;197;9,97;0;0;0;-0,11484726082071901;0,40316172950300605;0,13039949623001038;0,3967406231879635;-3,69273964659566;0,24414807580797754
18:53:50.736;0;Mov;1;198;9,97;0;0;0;-0,06340525826765496;0,3146336431756798;0,09092074194072924;-0,15259254737998595;-2,9908139286477247;0,030518509475997192
18:53:50.736;0;Mov;1;199;9,97;0;0;0;-0,10168767357402264;0,35291604358043155;0,0933133975541322;-0,45777764213995786;-2,2583697012237924;-0,09155552842799158
18:53:50.736;0;Mov;1;200;9,97;0;0;0;-0,0598162785729545;0,32779320061914424;0,1292031646979049;-1,1291848506118962;-1,6479995117038484;0,3357036042359691
18:53:50.757;0;Mov;1;201;9,82;0;0;0;-0,05383465071565905;0,2739585499034852;0,11245460520731605;-2,044740134891812;-1,3733329264198737;1,403851435895871
18:53:50.757;0;Mov;1;202;9,82;0;0;0;0,01794488357188635;0,20816065837485123;0,14714804826979125;-2,807702871791742;-0,7629627368999298;3,021332438123722
18:53:50.757;0;Mov;1;203;9,82;0;0;0;-0,0705832102062479;0,2823328408249916;0,13997008888039034;-3,5096285897396773;0;4,791405987731559
18:53:50.757;0;Mov;1;204;9,82;0;0;0;-0,06819056204365291;0,21653493439474167;0,11245460520731605;-4,303109836115604;1,0376293221839046;5,4322946867275
18:53:50.757;0;Mov;1;205;9,82;0;0;0;-0,1543260076591922;0,3696645956202124;0,09092074194072924;-4,791405987731559;1,6174810022278512;6,164738914151433
18:53:50.792;0;Wrist;1;181;10,05;-2,622345604953154;-1,2106815498443555;-0,7465071804330576;-1,2106815498443555;-2,622345604953154;-0,7465071804330576;11,597033600878934;-42,451246681112096;96,34693441572314
18:53:50.792;0;Wrist;1;182;10,05;-9,17462118900113;0;3,3329631374553665;0,3349711600085452;-9,17462118900113;3,3329631374553665;24,811548203985716;-25,391399884029664;92,56263924069948
18:53:50.792;0;Wrist;1;183;10,05;-7,317923711355937;-4,41204899365215;4,891775166325877;-4,41204899365215;-7,317923711355937;4,891775166325877;17,120883816034425;-47,8835413678396;62,95968504898221
18:53:50.792;0;Wrist;1;184;10,05;-6,780773625141148;-3,80311913472396;1,2226448055589465;-3,80311913472396;-6,780773625141148;1,2226448055589465;3,7537766655476545;-82,73567918942838;30,21332438123722
18:53:50.792;0;Wrist;1;185;10,05;-4,221832846308787;-1,381756035035249;-1,3027985711615344;-1,381756035035249;-4,221832846308787;-1,3027985711615344;-2,5025177770317697;-83,86486404004029;9,460737937559129
18:53:50.818;0;Mov;1;206;9,88;0;0;0;-0,16987822816686757;0,2799401777607807;0,08015381775824382;-5,401776177251503;1,8616290780358287;6,500442518387402
18:53:50.818;0;Mov;1;207;9,88;0;0;0;-0,08254646592083881;0,21653493439474167;0,08254646592083881;-5,615405743583484;2,410962248603778;6,530961027863399
18:53:50.818;0;Mov;1;208;9,88;0;0;0;-0,1531296761270867;0,16868191153637807;0,05024567474636257;-5,7374797814874725;2,685628833887753;7,690664387951292
18:53:50.818;0;Mov;1;209;9,88;0;0;0;-0,23567614949873347;0,21653493439474167;0,03349711525577372;-5,676442762535478;2,71614734336375;8,667256691183203
18:53:50.819;0;Mov;1;210;9,88;0;0;0;-0,22610554194673757;0,37684255500961333;0,05144199882766007;-5,645924253059481;2,5940733054597613;9,24710837122715
18:53:50.840;0;Wrist;1;186;10,04;-2,4512712389751883;-3,3856013672292247;-1,8985687534333324;-3,3856013672292247;-2,4512712389751883;-1,8985687534333324;-4,486220892971588;-70,89449751274148;2,380443739127781
18:53:50.840;0;Wrist;1;187;10,04;-2,1282633346812343;-3,404742671742912;-2,5338176080355237;-3,404742671742912;-2,1282633346812343;-2,5338176080355237;-1,922666096987823;-55,60472426526688;-3,9979247413556322
18:53:50.840;0;Wrist;1;188;10,04;-2,379491704687643;-3,15590690519425;-2,5362102114932705;-3,15590690519425;-2,379491704687643;-2,5362102114932705;-0,36622211371196634;-37,690359202856534;-12,085329752494888
18:53:50.840;0;Wrist;1;189;10,04;-3,1068574613940854;-3,672719504379406;-1,6999786132007813;-3,672719504379406;-3,1068574613940854;-1,6999786132007813;0,45777764213995786;-22,49214148380993;-20,87466048158208
18:53:50.840;0;Wrist;1;190;10,04;-3,1092503032776877;-4,014868713187048;-1,5815424769966735;-4,014868713187048;-3,1092503032776877;-1,5815424769966735;-0,15259254737998595;-15,259254737998596;-24,9946592608417
18:53:50.870;0;Wrist;1;191;9,93;-2,7587268631550037;-3,6368297372356335;-1,7011750341425824;-3,6368297372356335;-2,7587268631550037;-1,7011750341425824;-6,164738914151433;-8,850367748039186;-24,750511185033723
18:53:50.870;0;Wrist;1;192;9,93;-2,7898311849574267;-4,3462510872219005;0;-4,3462510872219005;-2,7898311849574267;-0,3744499217486343;-11,444441053498947;-3,69273964659566;-24,01806695760979
18:53:50.870;0;Wrist;1;193;9,93;-3,184618623538926;-5,8332835818048645;0;-5,8332835818048645;-3,184618623538926;0,37684255500961333;-7,477034821619312;-13,763847773674733;-19,867549668874172
18:53:50.870;0;Wrist;1;194;9,93;-2,9046785351878412;-4,353428659169286;-1,5612048707541124;-4,353428659169286;-2,9046785351878412;-1,5612048707541124;-0,9765923032319102;-29,02310251167333;-11,932737205114902
18:53:50.870;0;Wrist;1;195;9,93;-2,898696907330546;-2,739585558641316;-2,779064350184637;-2,739585558641316;-2,898696907330546;-2,779064350184637;1,281777397991882;-28,351695303201392;-10,193182164983062
18:53:50.877;0;Mov;1;211;9,93;0;0;0;-0,20217903051755579;0,2703695851104007;0,05742363041035951;-5,706961272011475;3,1128879665517135;9,12503433332316
18:53:50.877;0;Mov;1;212;9,93;0;0;0;-0,14236275194460127;0,25720999786370435;0,09690236979802469;-5,584887234107486;4,0284432508316295;9,03347880489517
18:53:50.878;0;Mov;1;213;9,93;0;0;0;-0,117239908983314;0,28352917235709707;0,0837427900021363;-5,462813196203498;4,8829615161595505;9,12503433332316
18:53:50.878;0;Mov;1;214;9,93;0;0;0;-0,07776116214484084;0,43187353725737787;0,117239908983314;-5,279702139347514;5,340739158299509;8,636738181707205
18:53:50.878;0;Mov;1;215;9,93;0;0;0;-0,07297585836884289;0,4007690664387951;0,11245460520731605;-5,249183629871517;6,256294442579424;7,110812707907346
18:53:50.908;0;Mov;1;216;9,84;0;0;0;-0,07536851398224585;0,20217903051755579;0,08852809377813425;-5,4322946867275;6,95822016052736;6,2868129520554215
18:53:50.908;0;Mov;1;217;9,84;0;0;0;-0,11125828112601856;0,19260842296555986;0,06101260637965598;-5,340739158299509;7,507553331095309;6,591998046815394
18:53:50.908;0;Mov;1;218;9,84;0;0;0;-0,1674855800042726;0,18543046357615894;0,07656483806354335;-4,760887478255562;7,873775444807276;7,141331217383343
18:53:50.908;0;Mov;1;219;9,84;0;0;0;-0,1543260076591922;0,06220893046095347;0,06340525826765496;-4,150517288735618;8,453627124851222;7,629627368999298
18:53:50.908;0;Mov;1;220;9,84;0;0;0;-0,1387737722499008;0,15791497245227668;0,06220893046095347;-3,3875545518356884;8,880886257515183;8,819849238563188
18:53:50.933;0;Wrist;1;196;10;-3,414313323999756;-3,5291604358043154;-2,6127751911221657;-3,5291604358043154;-3,414313323999756;-2,6127751911221657;0,09155552842799158;-21,17984557634205;-15,533921323282572
18:53:50.933;0;Wrist;1;197;10;-3,892843552583392;-3,5806024830622274;-2,3902585394604325;-3,5806024830622274;-3,892843552583392;-2,3902585394604325;-2,7771843623157446;-16,541032135990477;-24,445326090273753
18:53:50.933;0;Wrist;1;198;10;-4,190728762932219;-3,3389447653126623;-2,77667174672689;-3,3389447653126623;-4,190728762932219;-2,77667174672689;-5,523850215155492;-15,472884304330577;-35,8897671437727
18:53:50.934;0;Wrist;1;199;10;-3,590173135319071;-3,7875668546098207;-3,3664603011413923;-3,7875668546098207;-3,590173135319071;-3,3664603011413923;-9,460737937559129;-13,458662678914761;-47,57835627307962
18:53:50.934;0;Wrist;1;200;10;-3,1439436494796595;-4,523307081057161;-3,5686392273476364;-4,523307081057161;-3,1439436494796595;-3,5686392273476364;-14,709921567430646;-10,43733024079104;-54,811243018890956
18:53:50.967;0;Mov;1;221;9,88;0;0;0;-0,18064516725096896;0,17107455969897306;0,06460158234895245;-2,3499252296517836;9,430219428083133;9,399700918607135
18:53:50.967;0;Mov;1;222;9,88;0;0;0;-0,05383465071565905;0,09092074194072924;0,08733176969683676;-1,281777397991882;10,43733024079104;9,949034089175084
18:53:50.968;0;Mov;1;223;9,88;0;0;0;-0,1184362330646115;0,2548173646027253;0,18423414694566942;0,27466658528397475;11,719107638782923;10,43733024079104
18:53:50.968;0;Mov;1;224;9,88;0;0;0;-0,0239265114291818;0,29190343347537157;0,16509293184167761;1,8616290780358287;14,465773491622668;10,040589617603077
18:53:50.968;0;Mov;1;225;9,88;0;0;0;0,05024567474636257;0,3828241828669088;0,22610554194673757;2,4414807580797753;17,73125400555437;8,789330729087192
18:53:50.999;0;Wrist;1;201;10,08;-2,753941417813654;-4,940824610126041;-4,2912200155644395;-4,940824610126041;-2,753941417813654;-4,2912200155644395;-17,853328043458358;-8,117923520615253;-55,177465132602926
18:53:50.999;0;Wrist;1;202;10,08;-2,249092074343089;-5,271010563219092;-4,959965914639729;-5,271010563219092;-2,249092074343089;-4,959965914639729;-18,89095736564226;-1,2207403790398876;-54,10931730094302
18:53:50.999;0;Wrist;1;203;10,08;-1,8866054977187414;-6,281905671102024;-5,3798762855922115;-6,281905671102024;-1,8866054977187414;-5,3798762855922115;-17,975402081362347;8,728293710135198;-56,09302041688284
18:53:50.999;0;Wrist;1;204;10,08;-0,8709250041009247;-6,703012462996307;-4,8164068460646385;-6,703012462996307;-0,8709250041009247;-4,8164068460646385;-13,061922055726798;21,149327066866054;-62,71553697317423
18:53:50.999;0;Wrist;1;205;10,08;2,566118350779748;-2,9321940710165717;-1,2752830353328044;-2,9321940710165717;2,566118350779748;-1,2752830353328044;-10,98666341135899;34,48591570787683;-70,46723838007752
18:53:51.000;0;Mov;1;226;9,81;0;0;0;0,0837427900021363;0,3947874385814997;0,34573808419103064;2,4719992675557725;22,309030426953946;7,019257179479355
18:53:51.000;0;Mov;1;227;9,81;0;0;0;0,21653493439474167;0,32061527103297527;0,48331555471205784;2,6245918149357585;28,504287850581377;5,371257667775506
18:53:51.000;0;Mov;1;228;9,81;0;0;0,7369365877826777;0,3612903345019379;0,24524674214911343;0,7369365877826777;3,1128879665517135;37,11050752281258;3,326517532883694
18:53:51.000;0;Mov;1;229;9,81;0;0;0,9977355504394665;0,412732322153386;0,0705832102062479;0,9977355504394665;4,608294930875576;49,592577898495435;1,403851435895871
18:53:51.000;0;Mov;1;230;9,81;0;0;1,2190557811593983;0,4462294560361797;-0,22969452164143803;1,2190557811593983;6,2868129520554215;66,04205450605792;1,0376293221839046
18:53:51.021;0;Wrist;1;206;9,94;4,2637042413098545;5,815338698232979;3,320999881740776;5,815338698232979;4,2637042413098545;3,320999881740776;-8,6977752006592;52,2171697134312;-76,052125614185
18:53:51.021;0;Wrist;1;207;9,94;6,397949442274239;11,201196134830775;7,118137150181585;11,201196134830775;6,397949442274239;7,118137150181585;-6,4394054994354075;86,64204840235602;-86,73360393078401
18:53:51.021;0;Wrist;1;208;9,94;0;0;6,850160317545091;-0,2715659166425062;0,21174962316793572;6,850160317545091;-11,261329996642964;78,1579027680288;-65,37064729758599
18:53:51.021;0;Wrist;1;209;9,94;-6,043836977752006;-10,475027275917844;0,6065370766510514;-10,475027275917844;-6,043836977752006;0,6065370766510514;-10,864589373455;50,263985106967375;-24,201178014465775
18:53:51.021;0;Wrist;1;210;9,94;-3,963426665929136;-3,2264900185399945;0,7883785754341258;-3,2264900185399945;-3,963426665929136;0,7883785754341258;-0,9460737937559129;67,69005401776177;-29,847102267525255
18:53:51.067;0;Mov;1;231;9,89;0;0,6723349830813014;1,4391797101504562;0,6723349830813014;0,26079899246002075;1,4391797101504562;7,751701406903287;85,11612292855617;4,272591326639607
18:53:51.067;0;Mov;1;232;9,89;0,6711386813524277;0,6675496569528794;1,5887204065828424;0,6675496569528794;0,6711386813524277;1,5887204065828424;9,369182409131138;105,86870937223426;6,95822016052736
18:53:51.067;0;Mov;1;233;9,89;0;0,6041444135868405;1,6102541953413496;0,6041444135868405;0,46058534501174964;1,6102541953413496;12,787255470442824;127,53685110019227;6,683553575243385
18:53:51.068;0;Mov;1;234;9,89;0;0,8003418311487167;1,6987823114719076;0,8003418311487167;0,3194189395008698;1,6987823114719076;16,449476607562488;149,05240028077029;6,653035065767388
18:53:51.068;0;Mov;1;235;9,89;0;0,7441145173688467;1,667677870456557;0,7441145173688467;0,09211707347283471;1,667677870456557;20,050660725730154;169,4387646107364;7,38547929319132
18:53:51.080;0;Wrist;1;211;9,98;0,7285622968611714;0,8111087255279702;3,207348952452162;0,8111087255279702;0,7285622968611714;3,207348952452162;9,399700918607135;63,53953672902615;-35,8897671437727
18:53:51.080;0;Wrist;1;212;9,98;1,27049782841731;0;1,2070925254448073;-0,2667806203173162;1,27049782841731;1,2070925254448073;17,212439344462418;49,01272621845149;-22,7973265785699
18:53:51.080;0;Wrist;1;213;9,98;0;-1,6545183130130925;0,7488998434972686;-1,6545183130130925;-0,27635121296769616;0,7488998434972686;21,820734275337994;46,60176396984771;-12,329477828302865
18:53:51.080;0;Wrist;1;214;9,98;0;-1,0695150847270118;1,301602269432661;-1,0695150847270118;-0,2560136663315989;1,301602269432661;25,849177526169623;39,97924741355632;-11,474959562974945
18:53:51.080;0;Wrist;1;215;9,98;1,8471267061754204;0;0,6723349830813014;-0,417517618478576;1,8471267061754204;0,6723349830813014;27,03939939573351;31,647694326609088;-10,376293221839045
18:53:51.118;0;Mov;1;236;9,9;0;0,5586840537926878;1,6844264522995698;0,5586840537926878;-0,44024782817888425;1,6844264522995698;23,07199316385388;188,23816644795068;9,186071352275155
18:53:51.118;0;Mov;1;237;9,9;-0,5969664840006714;0,581414263492996;1,8770348454618977;0,581414263492996;-0,5969664840006714;1,8770348454618977;24,47584459974975;207,55638294625692;14,069032868434705
18:53:51.118;0;Mov;1;238;9,9;-0,8769066319582202;0,6687460182882168;2,124674310281686;0,6687460182882168;-0,8769066319582202;2,124674310281686;24,53688161870174;228,64467299417097;21,240882595294046
18:53:51.118;0;Mov;1;239;9,9;-1,216663177701651;0,7632557026696066;2,176116357539598;0,7632557026696066;-1,216663177701651;2,176116357539598;25,57451094088565;250,31281472212896;28,38221381267739
18:53:51.118;0;Mov;1;240;9,9;-1,118564409314249;0,5646656816499832;2,3735100768303474;0,5646656816499832;-1,118564409314249;2,3735100768303474;25,666066469313638;270,4245124668111;35,76769310586871
18:53:51.142;0;Wrist;1;216;10,04;2,7072848158970917;-1,0144841322824794;0;-1,0144841322824794;2,7072848158970917;0,021533861403884816;23,438215277565845;27,1919919431135;-5,645924253059481
18:53:51.142;0;Wrist;1;217;10,04;2,1904722167119357;-0,5144199957274087;0;-0,5144199957274087;2,1904722167119357;0,12322153684060945;19,104586931974243;26,18488113040559;1,0071108127079074
18:53:51.142;0;Wrist;1;218;10,04;0,7656483657338176;0;0,5168126587916196;0,12082888867801446;0,7656483657338176;0,5168126587916196;16,571550645466477;23,865474410229805;4,4557023834955904
18:53:51.142;0;Wrist;1;219;10,04;0;0;0;0,08852809377813425;0,1866267951082644;0,48690451950514235;17,334513382366406;20,11169774468215;4,1810357982116155
18:53:51.142;0;Wrist;1;220;10,04;0;0,5694510077784051;0;0,5694510077784051;0,29309976500747703;0,3170262764366588;20,050660725730154;18,646809289834284;4,364146855067599
18:53:51.151;0;Mov;1;241;9,83;-0,9199743882946257;0;2,552958912549211;0,1818414838814585;-0,9199743882946257;2,552958912549211;25,33036286507767;290,0479140598773;46,44917142246773
18:53:51.151;0;Mov;1;242;9,83;-1,5061739183095797;0;2,9333902535325174;-0,19500107112815485;-1,5061739183095797;2,9333902535325174;26,886806848353526;306,3447981200598;60,9149449140904
18:53:51.151;0;Mov;1;243;9,83;-0,9606494815668203;-1,1819697122867519;3,932322344126713;-1,1819697122867519;-0,9606494815668203;3,932322344126713;20,172734763634143;311,56346324045535;76,35731070894498
18:53:51.151;0;Mov;1;244;9,83;-0,6256782619518113;-1,7932920554597613;5,402606376079592;-1,7932920554597613;-0,6256782619518113;5,402606376079592;9,857478560747094;295,9685048982208;93,84441663869137
18:53:51.151;0;Mov;1;245;9,83;0;-1,7980773815881832;6,2591755806146425;-1,7980773815881832;-0,0119632557145909;6,2591755806146425;0,45777764213995786;257,14896084475237;106,99789422284616
18:53:51.170;0;Wrist;1;221;9,94;0;0,8589617483863338;0;0,8589617483863338;-0,06699423051154745;0,25720999786370435;23,07199316385388;18,921475875118258;4,852443006683553
18:53:51.170;0;Wrist;1;222;9,94;0;0,7046357854319895;0;0,7046357854319895;-0,3852168459311197;0,4007690664387951;25,940733054597615;19,745475630970184;5,127109591967528
18:53:51.171;0;Wrist;1;223;9,94;0;0,9175817252304147;0;0,9175817252304147;-0,297885061332667;0,34095278786584066;28,565324869533374;20,172734763634143;4,058961760307627
18:53:51.171;0;Wrist;1;224;9,94;0;1,0348216193121127;0,5215979849200415;1,0348216193121127;-0,08015381775824382;0,5215979849200415;31,708731345561084;20,87466048158208;3,326517532883694
18:53:51.171;0;Wrist;1;225;9,94;0;0,6268746232871486;0,5574877520638142;0,6268746232871486;-0,0945097216354297;0,5574877520638142;35,340433973204746;20,630512405774102;3,814813684499649
18:53:51.211;0;Mov;1;246;9,87;0;-1,0731041091265603;8,375475898007142;-1,0731041091265603;-0,12322153684060945;8,375475898007142;-10,132145146031068;204,80971709341716;112,49122592852565
18:53:51.212;0;Mov;1;247;9,87;1,8351634504608294;2,999188159962767;10,203461180455946;2,999188159962767;1,8351634504608294;10,203461180455946;-50,99642933439131;141,78899502548296;114,35285500656148
18:53:51.212;0;Mov;1;248;9,87;3,4286691831720937;8,225935201574755;10,02042355876339;8,225935201574755;3,4286691831720937;10,02042355876339;-83,49864192632832;73,82427442243721;131,01596118045595
18:53:51.212;0;Mov;1;249;9,87;1,1389020155568101;11,41653473769341;7,087032589953306;11,41653473769341;1,1389020155568101;7,087032589953306;-77,1202734458449;30,701620532853177;174,9626148258919
18:53:51.212;0;Mov;1;250;9,87;-1,4032899430066836;9,356462866603595;6,655159440137943;9,356462866603595;-1,4032899430066836;6,655159440137943;-70,19257179479354;8,270516067995239;193,4568315683462
18:53:51.233;0;Wrist;1;226;10;0;0;0;0,4007690664387951;0,37923521807382427;0,40675069429609056;37,842951750236516;19,34873500778222;3,1128879665517135
18:53:51.233;0;Wrist;1;227;10;1,001324574839015;0;0;0,2249092104146321;1,001324574839015;0,04546037097036462;37,324137089144564;16,96829126865444;1,3428144169438765
18:53:51.233;0;Wrist;1;228;10;1,5049776165807063;0;0;0,4617816765438551;1,5049776165807063;-0,20696432684274574;32,41065706350902;14,526810510574663;-1,098666341135899
18:53:51.233;0;Wrist;1;229;10;1,4977996869945371;0,5718436112361522;0;0,5718436112361522;1,4977996869945371;-0,2895108002143925;25,055696279793693;12,421033356730858;-3,5096285897396773
18:53:51.233;0;Wrist;1;230;10;1,3279213843195898;0;0;0,4498184208292642;1,3279213843195898;-0,1387737722499008;18,005920590838343;10,589922788171025;-5,127109591967528
18:53:51.293;0;Wrist;1;231;10,04;0,9845759929960021;0,5670583447141941;0;0,5670583447141941;0,9845759929960021;-0,02273018548518231;12,909329508346813;8,789330729087192;-6,500442518387402
18:53:51.293;0;Wrist;1;232;10,04;0,8063234590060121;0;0;0,473744932258446;0,8063234590060121;0,0346934430624752;8,850367748039186;6,74459059419538;-8,087405011139255
18:53:51.293;0;Wrist;1;233;10,04;0,6531937977805414;0,5850032282860805;0;0,5850032282860805;0,6531937977805414;0,19021577480296487;5,493331705679495;5,706961272011475;-8,301034577471237
18:53:51.293;0;Wrist;1;234;10,04;0;0;0;0,46297800807596057;0,28472550388920254;0,30027772439687794;3,6317026276436657;5,035554063539537;-8,48414563432722
18:53:51.293;0;Wrist;1;235;10,04;0;0;0;0,4498184208292642;0,21773125102523117;0,3517197120483261;3,5096285897396773;4,303109836115604;-8,392590105899227
18:53:51.297;0;Mov;1;251;10,02;-4,547233592486343;7,850288590655232;6,3895749725333415;7,850288590655232;-4,547233592486343;6,3895749725333415;-75,71642200994903;-21,17984557634205;185,21683400982695
18:53:51.297;0;Mov;1;252;10,02;-6,297457712790307;9,338517983031709;5,230335589159825;9,338517983031709;-6,297457712790307;5,230335589159825;-72,93923764763329;-47,30368968779565;168,4621723075045
18:53:51.297;0;Mov;1;253;10,02;-5,7543259987182225;8,68293080690939;4,80803237632374;8,68293080690939;-5,7543259987182225;4,80803237632374;-74,25153355510118;-69,70427564317758;139,80529190954314
18:53:51.297;0;Mov;1;254;10,02;-6,8944245544297615;8,151762825403607;4,479042844172491;8,151762825403607;-6,8944245544297615;4,479042844172491;-68,75820184942168;-89,0835291604358;117,22159489730521
18:53:51.297;0;Mov;1;255;10,02;-7,570348502304148;8,17568933683279;3,8485795541245764;8,17568933683279;-7,570348502304148;3,8485795541245764;-65,00442518387402;-109,19522690511795;92,16589861751152
18:53:51.299;0;Mov;1;256;9,96;-7,6708397549363685;8,036914998321482;3,1487288563951537;8,036914998321482;-7,6708397549363685;3,1487288563951537;-65,43168431653798;-126,83492538224434;62,34931485946226
18:53:51.300;0;Mov;1;257;9,96;-7,754582544938505;7,80363198873867;2,550566070665609;7,80363198873867;-7,754582544938505;2,550566070665609;-64,02783288064211;-139,86632892849514;32,685323648792995
18:53:51.300;0;Mov;1;258;9,96;-7,161204966124455;7,175561063722648;2,204828075884274;7,175561063722648;-7,161204966124455;2,204828075884274;-64,0888698995941;-150,0595110934782;3,1434064760277107
18:53:51.300;0;Mov;1;259;9,96;-6,3417219496749775;6,340525528733177;1,8495194288460952;6,340525528733177;-6,3417219496749775;1,8495194288460952;-66,89657277138585;-159,7338785973693;-25,605029450361645
18:53:51.300;0;Mov;1;260;9,96;-5,627515392773217;5,791412186803797;1,721512521172216;5,791412186803797;-5,627515392773217;1,721512521172216;-67,75109103671377;-166,2648396252327;-50,416577654347364
18:53:51.321;0;Wrist;1;236;9,95;0;0,6316598898091067;0;0,6316598898091067;0,1531296761270867;0,3852168459311197;5,21866512039552;3,7537766655476545;-8,667256691183203
18:53:51.321;0;Wrist;1;237;9,95;0;0,6173040306367688;0;0,6173040306367688;0,3624866660340434;0,2512283700064089;7,4159978026673175;2,7771843623157446;-9,33866389965514
18:53:51.321;0;Wrist;1;238;9,95;0,6424268437948241;0,7847896106410412;0;0,7847896106410412;0,6424268437948241;0,15193334459498123;6,561479537339396;1,9531846064638203;-10,589922788171025
18:53:51.321;0;Wrist;1;239;9,95;0,7429182156399732;0,6149113675725577;0;0,6149113675725577;0,7429182156399732;0,05742363041035951;4,425183874019593;0;-12,207403790398876
18:53:51.321;0;Wrist;1;240;9,95;0,8410168648144475;0,661568029095584;0;0,661568029095584;0,8410168648144475;0;1,4343699453718681;-1,5259254737998595;-14,099551377910704
18:53:51.380;0;Wrist;1;241;9,99;0,6902798666531876;0,6304635880802332;0;0,6304635880802332;0,6902798666531876;0,01794488357188635;-1,403851435895871;-2,7466658528397474;-14,984588152714622
18:53:51.380;0;Wrist;1;242;9,99;0;0,766844727069155;0;0,766844727069155;0,44383679297196876;0,14236275194460127;-3,845332193975646;-4,119998779259621;-16,08325449385052
18:53:51.380;0;Wrist;1;243;9,99;0,6053407749221777;0,5802179021576587;0;0,5802179021576587;0,6053407749221777;0,11365092928861355;-4,8829615161595505;-5,279702139347514;-17,05984679708243
18:53:51.381;0;Wrist;1;244;9,99;0,5562913907284768;0,6328562511444441;0;0,6328562511444441;0,5562913907284768;0,1184362330646115;-6,378368480483413;-6,042664876247444;-16,876735740226447
18:53:51.381;0;Wrist;1;245;9,99;0;0,7955565050202948;0;0,7955565050202948;0,42110661307489244;0,19260842296555986;-8,209479049043244;-7,232886745811334;-18,005920590838343
18:53:51.388;0;Mov;1;261;9,96;-4,937235824152348;4,877419545579394;2,142619193853572;4,877419545579394;-4,937235824152348;2,142619193853572;-68,4530167546617;-172,06335642567217;-72,93923764763329
18:53:51.388;0;Mov;1;262;9,96;-4,2948088015381325;4,060328894161809;2,3172825842310862;4,060328894161809;-4,2948088015381325;2,3172825842310862;-67,84264656514176;-179,3572801904355;-95,09567552720725
18:53:51.388;0;Mov;1;263;9,96;-3,032685323648793;3,57820987960448;2,618756818979461;3,57820987960448;-3,032685323648793;2,618756818979461;-66,43879512924589;-184,63698232978302;-115,3294473097934
18:53:51.388;0;Mov;1;264;9,96;-1,777739775345622;2,379491704687643;3,5865841109195227;2,379491704687643;-1,777739775345622;3,5865841109195227;-64,2719809564501;-189,27579577013458;-130,83285012359997
18:53:51.388;0;Mov;1;265;9,96;-1,04558857329783;0,8828882598155157;4,04956205938902;0,8828882598155157;-1,04558857329783;4,04956205938902;-57,679982909634695;-196,99697866756188;-137,73003326517534
18:53:51.418;0;Mov;1;266;9,96;0;0;3,9263407162694173;-0,13997008888039034;-0,07776116214484084;3,9263407162694173;-50,935392315439316;-205,2980132450331;-140,69032868434707
18:53:51.418;0;Mov;1;267;9,96;0;-0,769237330526902;3,7672293675801876;-0,769237330526902;0,1339884610230949;3,7672293675801876;-47,8225043488876;-210,15045625171666;-140,41566209906307
18:53:51.418;0;Mov;1;268;9,96;0,5562913907284768;-1,575560849139378;4,246955778679769;-1,575560849139378;0,5562913907284768;4,246955778679769;-43,06161687063204;-210,8829004791406;-137,39432966093935
18:53:51.418;0;Mov;1;269;9,96;0,8242683425778985;-2,858021933271279;4,255330248420667;-2,858021933271279;0,8242683425778985;4,255330248420667;-37,141026032288586;-214,75875118259225;-131,80944242683188
18:53:51.418;0;Mov;1;270;9,96;0;-3,307840205084384;3,763640343180639;-3,307840205084384;0,25720999786370435;3,763640343180639;-28,68739890743736;-215,94897305215613;-125,27848139896848
18:53:51.444;0;Wrist;1;246;10,05;0,7357402264473403;0,701046820638905;0;0,701046820638905;0,7357402264473403;0,06819056204365291;-10,132145146031068;-9,521774956511123;-20,29480880153813
18:53:51.444;0;Wrist;1;247;10,05;0,9092074343089084;0,6053407749221777;0;0,6053407749221777;0,9092074343089084;-0,01794488357188635;-13,275551622058778;-11,932737205114902;-22,49214148380993
18:53:51.444;0;Wrist;1;248;10,05;0,6256782619518113;0,5634693799211097;0;0,5634693799211097;0,6256782619518113;0,10288399765532014;-16,815698721274455;-13,794366283150731;-23,865474410229805
18:53:51.444;0;Wrist;1;249;10,05;0;0,6663533552240058;0;0,6663533552240058;0,30386668918996246;0,11125828112601856;-19,287697988830224;-16,20532853175451;-26,97836237678152
18:53:51.445;0;Wrist;1;250;10,05;0;0,7034394240966522;0;0,7034394240966522;0,45221108389347514;0,052638326634361556;-21,33243812372204;-18,341624195074314;-31,250953703421125
18:53:51.447;0;Mov;1;271;9,9;-0,595770122665334;-3,7684255500961332;3,405938854258858;-3,7684255500961332;-0,595770122665334;3,405938854258858;-18,06695760979034;-211,0049745170446;-121,7078157902768
18:53:51.447;0;Mov;1;272;9,9;-1,5528306394390698;-4,447938760795923;2,8137576963866087;-4,447938760795923;-1,5528306394390698;2,8137576963866087;-6,8666646320993685;-201,78838465529344;-122,59285256508072
18:53:51.447;0;Mov;1;273;9,9;-2,5027130478072452;-4,666866149632252;2,6534501651814324;-4,666866149632252;-2,5027130478072452;2,6534501651814324;0;-188,45179601428265;-129,5815912350841
18:53:51.448;0;Mov;1;274;9,9;-3,538731088061159;-5,678957678456984;2,377098862804041;-5,678957678456984;-3,538731088061159;2,377098862804041;7,110812707907346;-175,32883693960386;-141,178624835963
18:53:51.448;0;Mov;1;275;9,9;-3,575817276146733;-6,265157208471938;1,1209571319849239;-6,265157208471938;-3,575817276146733;1,1209571319849239;20,29480880153813;-160,31373027741324;-151,79906613361004
18:53:51.479;0;Wrist;1;251;9,98;0,7823969475768303;0,6962614945104831;0;0,6962614945104831;0,7823969475768303;-0,00837427881394343;-23,04147465437788;-19,13510544145024;-33,448286385692924
18:53:51.479;0;Wrist;1;252;9,98;0,7357402264473403;0,7931638419560839;0;0,7931638419560839;0,7357402264473403;0,019141209515885837;-24,628437147129734;-18,433179723502302;-33,11258278145695
18:53:51.479;0;Wrist;1;253;9,98;0;0,8458021909428693;0;0,8458021909428693;0,3194189395008698;0,20576799531064027;-25,45243690298166;-16,815698721274455;-32,07495345927305
18:53:51.479;0;Wrist;1;254;9,98;0,9462935627880185;0,6316598898091067;0;0,6316598898091067;0,9462935627880185;0,1387737722499008;-23,957029938657797;-14,709921567430646;-31,311990722373118
18:53:51.479;0;Wrist;1;255;9,98;1,362614849734489;0;0;0,4976714436876278;1,362614849734489;-0,05024567474636257;-22,675252540665912;-11,261329996642964;-26,18488113040559
18:53:51.512;0;Mov;1;276;9,97;-2,989617746131779;-7,13368966872158;0;-7,13368966872158;-2,989617746131779;-0,44503312450407423;42,63435773796808;-136,47877437665943;-156,3463240455336
18:53:51.512;0;Mov;1;277;9,97;-2,0146124053926204;-7,819184030426954;-1,7179234967726675;-7,819184030426954;-2,0146124053926204;-1,7179234967726675;70,98605304116947;-104,3427838984344;-156,5294351023896
18:53:51.512;0;Mov;1;278;9,97;-1,5935057327112643;-7,465071565904721;-1,331510408719138;-7,465071565904721;-1,5935057327112643;-1,331510408719138;88,86989959410383;-73,45805230872524;-154,42365794854578
18:53:51.512;0;Mov;1;279;9,97;-0,5838068669507431;-8,97842341380047;-1,269301407475509;-8,97842341380047;-0,5838068669507431;-1,269301407475509;79,07345805230872;-62,013611255226294;-155,4002502517777
18:53:51.512;0;Mov;1;280;9,97;0;-9,601709608752708;-1,801666286774804;-9,601709608752708;0,4581927117507706;-1,801666286774804;52,12561418500321;-60,36561174352244;-152,134769737846
18:53:51.530;0;Wrist;1;256;9,93;0,8003418311487167;0,5730399725714896;0;0,5730399725714896;0,8003418311487167;0,10049134949272515;-23,651844843897823;-8,423108615375225;-19,98962370677816
18:53:51.531;0;Wrist;1;257;9,93;0,6053407749221777;0;0;0,417517618478576;0,6053407749221777;0,16628926337378308;-23,56028931546983;-7,263405255287331;-17,029328287606432
18:53:51.531;0;Wrist;1;258;9,93;0;0;0;0,3900021422563097;0,44862208929715874;0,2273018585772271;-22,034363841669972;-6,042664876247444;-14,954069643238624
18:53:51.531;0;Wrist;1;259;9,93;0,6089297397152623;0,6472121699232459;0;0,6472121699232459;0,6089297397152623;0,12082888867801446;-20,661030915250098;-5,21866512039552;-14,282662434766687
18:53:51.531;0;Wrist;1;260;9,93;0,5826105652218696;0,579021600428785;0;0,579021600428785;0,5826105652218696;0,15193334459498123;-20,966216010010072;-5,066072573015534;-13,91644032105472
18:53:51.570;0;Mov;1;281;9,81;1,6760521017715995;-8,9449264885403;-2,1832941679128393;-8,9449264885403;1,6760521017715995;-2,1832941679128393;16,449476607562488;-64,02783288064211;-138,70662556840725
18:53:51.570;0;Mov;1;282;9,81;2,034949892422254;-8,559709463789789;-3,454988298059023;-8,559709463789789;2,034949892422254;-3,454988298059023;-22,431104464857935;-67,4459059419538;-124,30188909573657
18:53:51.570;0;Mov;1;283;9,81;1,3027985711615344;-9,281093592638936;-3,379619739371929;-9,281093592638936;1,3027985711615344;-3,379619739371929;-46,90694906460769;-54,597613452558974;-102,87789544358654
18:53:51.570;0;Mov;1;284;9,81;2,0959623535111547;-10,289596812341685;-2,6151677945799126;-10,289596812341685;2,0959623535111547;-2,6151677945799126;-53,2853175450911;-43,94665364543596;-77,0897549363689
18:53:51.570;0;Mov;1;285;9,81;3,6930572298348947;-10,21781727805414;-2,6139713736381114;-10,21781727805414;3,6930572298348947;-2,6139713736381114;-53,16324350718711;-44,648579363383895;-51,332132938627275
18:53:51.591;0;Wrist;1;261;9,96;0,6292672863513596;0,5084383678701132;0;0,5084383678701132;0,6292672863513596;0,13757744071779535;-21,51554918057802;-4,821924497207556;-13,397625659962767
18:53:51.591;0;Wrist;1;262;9,96;0,598162785729545;0,5754326356357006;0;0,5754326356357006;0,598162785729545;0,14954069643238624;-22,095400860621968;-4,486220892971588;-12,878810998870815
18:53:51.591;0;Wrist;1;263;9,96;0,522794286648915;0;0;0,39598377011360514;0,522794286648915;0,21892758255733666;-21,85125278481399;-4,638813440351573;-12,17688528092288
18:53:51.591;0;Wrist;1;264;9,96;0,537150205427717;0,5287759145062105;0;0,5287759145062105;0,537150205427717;0,24165777735602892;-20,813623462630087;-4,364146855067599;-11,444441053498947
18:53:51.591;0;Wrist;1;265;9,96;0;0,5706473095072787;0;0,5706473095072787;0,4964751121555223;0,23208716980403302;-19,837031159398176;-3,967406231879635;-11,139255958738975
18:53:51.620;0;Wrist;1;266;9,96;0,5383465071565905;0,5730399725714896;0;0,5730399725714896;0,5383465071565905;0,22371287888252664;-18,67732779931028;-3,5706656086916717;-11,139255958738975
18:53:51.620;0;Wrist;1;267;9,96;0,6089297397152623;0,5921811578722496;0;0,5921811578722496;0,6089297397152623;0,20696432684274574;-17,822809533982362;-2,8992584002197335;-11,383404034546952
18:53:51.621;0;Wrist;1;268;9,96;0,5096347292054506;0,5383465071565905;0;0,5383465071565905;0,5096347292054506;0,22371287888252664;-17,517624439222388;-2,7466658528397474;-11,53599658192694
18:53:51.621;0;Wrist;1;269;9,96;0,6065370766510514;0,6029481118579668;0;0,6029481118579668;0,6065370766510514;0,16509293184167761;-17,05984679708243;-2,8992584002197335;-12,024292733542893
18:53:51.621;0;Wrist;1;270;9,96;0,6412305420659505;0,6747276461455123;0;0,6747276461455123;0,6412305420659505;0,16628926337378308;-16,357921079134496;-2,685628833887753;-12,573625904110843
18:53:51.630;0;Mov;1;286;10,04;4,7482160977507855;-9,124375324259162;-4,007690664387951;-9,124375324259162;4,7482160977507855;-4,007690664387951;-49,9893185216834;-47,94457838679159;-24,78102969450972
18:53:51.631;0;Mov;1;287;10,04;5,8057682844019896;-8,30728514969329;-4,339073038422804;-8,30728514969329;5,8057682844019896;-4,339073038422804;-52,674947355571156;-42,3902096621601;1,6174810022278512
18:53:51.631;0;Mov;1;288;10,04;4,628583540604877;-8,466396259956664;-4,232600157933287;-8,466396259956664;4,628583540604877;-4,232600157933287;-56,917020172734766;-36,28650776696066;23,346659749137853
18:53:51.631;0;Mov;1;289;10,04;3,660756248664815;-7,490194498275704;-4,7721426091799675;-7,490194498275704;3,660756248664815;-4,7721426091799675;-55,33005767998291;-30,487990966521195;38,666951506088445
18:53:51.631;0;Mov;1;290;10,04;3,6858791810357983;-6,837000640888699;-4,828370101779229;-6,837000640888699;3,6858791810357983;-4,828370101779229;-55,84887234107486;-19,531846064638202;47,02902310251167
18:53:51.658;0;Mov;1;291;9,48;2,8101689104129153;-6,878872035889767;-4,19312112796411;-6,878872035889767;2,8101689104129153;-4,19312112796411;-56,703390606402785;-6,683553575243385;49,592577898495435
18:53:51.658;0;Mov;1;292;9,48;2,5601367229224525;-6,033070142979217;-3,712198295922727;-6,033070142979217;2,5601367229224525;-3,712198295922727;-52,43079927976318;2,410962248603778;49,47050386059145
18:53:51.658;0;Mov;1;293;9,48;2,4931426339762566;-4,946806237983337;-3,1044648579363385;-4,946806237983337;2,4931426339762566;-3,1044648579363385;-44,648579363383895;11,07821893978698;47,090060121463665
18:53:51.658;0;Mov;1;294;9,48;1,7083529637287516;-3,946678203299051;-2,341209095660268;-3,946678203299051;1,7083529637287516;-2,341209095660268;-36,04235969115268;17,792291024506362;40,10132145146031
18:53:51.658;0;Mov;1;295;9,48;0,9534714923741875;-3,19418927579577;-2,074428683965575;-3,19418927579577;0,9534714923741875;-2,074428683965575;-26,123844111453597;21,17984557634205;28,656880397961363
18:53:51.681;0;Wrist;1;271;9,57;0,7118137150181585;0,7321512616542558;0;0,7321512616542558;0,7118137150181585;0,15552232428968168;-16,022217474898525;-2,4719992675557725;-13,550218207342754
18:53:51.681;0;Wrist;1;272;9,57;0,644819506859035;0,7477034821619312;0;0,7477034821619312;0,644819506859035;0,16628926337378308;-16,05273598437452;-2,166814172795801;-14,34369945371868
18:53:51.681;0;Wrist;1;273;9,57;0,6400341807306131;0,6412305420659505;0;0,6412305420659505;0,6400341807306131;0,1507370279644917;-15,86962492751854;-1,8616290780358287;-14,984588152714622
18:53:51.681;0;Wrist;1;274;9,57;0,5718436112361522;0,708224750225074;0;0,708224750225074;0,5718436112361522;0,2009826989854503;-15,350810266426588;-0,9155552842799157;-15,808587908566546
18:53:51.681;0;Wrist;1;275;9,57;0,6567827625736259;0,7465071804330576;0;0,7465071804330576;0,6567827625736259;0,17825251908837397;-14,923551133762627;0;-15,961180455946531
18:53:51.719;0;Mov;1;296;9,72;0,6854945405247658;-2,8891262550737022;-1,8566973584322641;-2,8891262550737022;0,6854945405247658;-1,8566973584322641;-17,48710592974639;23,102511673329875;14,618366039002655
18:53:51.719;0;Mov;1;297;9,72;0,6173040306367688;-3,0075626297036653;-1,8722495193334758;-3,0075626297036653;0,6173040306367688;-1,8722495193334758;-12,512588885158848;22,186956389049957;-0,7629627368999298
18:53:51.719;0;Mov;1;298;9,72;0,6436231455236976;-2,779064350184637;-2,4153814718314157;-2,779064350184637;0,6436231455236976;-2,4153814718314157;-5,615405743583484;22,461622974333935;-13,458662678914761
18:53:51.719;0;Mov;1;299;9,72;0,9391155735953856;-3,6535784382915737;-2,8556290913876765;-3,6535784382915737;0,9391155735953856;-2,8556290913876765;6,500442518387402;27,03939939573351;-22,94991912594989
18:53:51.719;0;Mov;1;300;9,72;1,6210211493270668;-5,095150513473922;-3,252809371852779;-5,095150513473922;1,6210211493270668;-3,252809371852779;20,508438367870113;33,41776787621693;-31,495101779229103
18:53:51.770;0;Wrist;1;276;9,9;0,6723349830813014;0,8266610056421094;0;0,8266610056421094;0,6723349830813014;0,23328348643452254;-14,984588152714622;1,1902218695638904;-16,05273598437452
18:53:51.770;0;Wrist;1;277;9,9;0,7130100763534959;0,7524888082903531;0;0,7524888082903531;0,7130100763534959;0,20696432684274574;-15,350810266426588;2,807702871791742;-16,876735740226447
18:53:51.770;0;Wrist;1;278;9,9;0,654390099509415;0,8075197607348857;0;0,8075197607348857;0,654390099509415;0,28352917235709707;-15,259254737998596;4,394665364543596;-17,303994872890406
18:53:51.770;0;Wrist;1;279;9,9;0,6651570534951323;0,7776116214484085;0;0,7776116214484085;0,6651570534951323;0,3923948053205206;-14,67940305795465;6,591998046815394;-17,334513382366406
18:53:51.771;0;Wrist;1;280;9,9;0,7764153197195349;0,7680410287980285;0;0,7680410287980285;0,7764153197195349;0,4498184208292642;-14,862514114810633;9,704886013367107;-17,670216986602373
18:53:51.773;0;Wrist;1;281;9,9;0,8422132261497849;0,7034394240966522;0,5550950889996032;0,7034394240966522;0,8422132261497849;0,5550950889996032;-14,831995605334635;13,885921811578722;-19,318216498306224
18:53:51.773;0;Wrist;1;282;9,9;0,9199743882946257;0,7441145173688467;0,7465071804330576;0,7441145173688467;0,9199743882946257;0,7465071804330576;-15,045625171666616;19,47080904568621;-20,99673451948607
18:53:51.773;0;Wrist;1;283;9,9;1,1712027583010345;0,8637470745147557;1,0719076881847591;0,8637470745147557;1,1712027583010345;1,0719076881847591;-15,717032380138553;28,07702871791742;-23,346659749137853
18:53:51.773;0;Wrist;1;284;9,9;1,6545183130130925;0,9104037956442458;1,435590685750908;0,9104037956442458;1,6545183130130925;1,435590685750908;-18,15851313821833;40,92532120731224;-26,917325357829522
18:53:51.773;0;Wrist;1;285;9,9;1,7693655440305796;0,7883785754341258;1,7047639393292031;0,7883785754341258;1,7693655440305796;1,7047639393292031;-24,048585467085786;59,602649006622514;-33,63139744254891
18:53:51.779;0;Mov;1;301;9,93;2,0421277027954954;-6,716171662800988;-4,085451826532792;-6,716171662800988;2,0421277027954954;-4,085451826532792;35,340433973204746;40,86428418836024;-39,1857661671804
18:53:51.779;0;Mov;1;302;9,93;2,6953215601825007;-8,460414632099369;-5,121469866786706;-8,460414632099369;2,6953215601825007;-5,121469866786706;58,6870937223426;54,78072450941496;-44,953764458143866
18:53:51.779;0;Mov;1;303;9,93;4,494595362712485;-7,2174324587237155;-2,3627430036317025;-7,2174324587237155;4,494595362712485;-2,3627430036317025;82,46101260414441;81,5454573198645;-47,63939329203162
18:53:51.779;0;Mov;1;304;9,93;3,9167700640125735;1,6521255903424177;4,075881412701803;1,6521255903424177;3,9167700640125735;4,075881412701803;96,86574907681509;112,76589251380963;-27,649769585253456
18:53:51.779;0;Mov;1;305;9,93;4,757786988433485;10,436744666890469;9,992907307657093;10,436744666890469;4,757786988433485;9,992907307657093;93,99700918607135;138,76766258735924;16,815698721274455
18:53:51.808;0;Mov;1;306;9,93;7,72706724753563;1,365007453192236;7,468660828730124;1,365007453192236;7,72706724753563;7,468660828730124;57,6494644001587;119,541001617481;15,259254737998596
18:53:51.809;0;Mov;1;307;9,93;8,046486365855891;-12,609271523178808;0;-12,609271523178808;8,046486365855891;0,46776330440115055;40,16235847041231;98,14752647480697;-1,0681478316599018
18:53:51.809;0;Mov;1;308;9,93;4,690792661061434;-4,913309312723166;3,4729331816309092;-4,913309312723166;4,690792661061434;3,4729331816309092;16,663106173894466;106,11285744804223;8,972441785943175
18:53:51.809;0;Mov;1;309;9,93;-2,8556290913876765;1,5109592444380016;3,15590690519425;1,5109592444380016;-2,8556290913876765;3,15590690519425;11,444441053498947;92,31849116489151;6,103701895199438
18:53:51.809;0;Mov;1;310;9,93;0;0;1,28963901371807;-0,0717795342875454;0,30027772439687794;1,28963901371807;1,7700735496078372;72,05420087282937;-12,634662923062837
18:53:51.831;0;Wrist;1;286;9,95;1,4320017805642873;0,8769066319582202;2,051698355052339;0,8769066319582202;1,4320017805642873;2,051698355052339;-30,579546494949188;81,94219794305246;-43,15317239906003
18:53:51.831;0;Wrist;1;287;9,95;1,2932279189046907;0,9738090390102847;2,4405041657765434;0,9738090390102847;1,2932279189046907;2,4405041657765434;-37,56828516495254;106,81478316599018;-50,874355296487316
18:53:51.831;0;Wrist;1;288;9,95;1,5767571508682516;0,996539248710593;3,0027771843623157;0,996539248710593;1,5767571508682516;3,0027771843623157;-45,350505081331825;135,31907101657154;-58,93124179815058
18:53:51.832;0;Wrist;1;289;9,95;1,9165136370052187;1,454731871051668;3,5183936010315255;1,454731871051668;1,9165136370052187;3,5183936010315255;-55,84887234107486;168,3706167790765;-67,93420209356975
18:53:51.832;0;Wrist;1;290;9,95;2,5206579313791315;1,2669088040177618;3,7421064352092044;1,2669088040177618;2,5206579313791315;3,7421064352092044;-65,309610278634;203,34482863856928;-77,1507919553209
18:53:51.892;0;Wrist;1;291;9,85;3,070967694250313;0;4,062721736045412;0,48211922317995237;3,070967694250313;4,062721736045412;-73,36649678029725;240,2722251045259;-90,42634357737968
18:53:51.892;0;Wrist;1;292;9,85;4,316342947935423;0;5,034138290810877;0,11365092928861355;4,316342947935423;5,034138290810877;-82,88827173680838;277,1691030610065;-107,88293099765008
18:53:51.892;0;Wrist;1;293;9,85;6,479299390392773;1,4032899430066836;6,80470013657033;1,4032899430066836;6,479299390392773;6,80470013657033;-93,63078707235938;305,94805749687185;-128,66603595080417
18:53:51.892;0;Wrist;1;294;9,85;7,311942083498642;2,59004486220893;6,722153290658285;2,59004486220893;7,311942083498642;6,722153290658285;-107,5777459028901;314,40168462172306;-143,4064760277108
18:53:51.892;0;Wrist;1;295;9,85;4,863063447981201;1,5624011724829858;7,072676969206824;1,5624011724829858;4,863063447981201;7,072676969206824;-119,99877925962096;309,6102786339915;-140,78188421277505
18:53:51.897;0;Mov;1;311;10,05;3,295876949369793;-3,9406965754417556;1,7550096848582415;-3,9406965754417556;3,295876949369793;1,7550096848582415;-5,066072573015534;57,100131229590744;-15,655995361186559
18:53:51.897;0;Mov;1;312;10,05;0,9116000973731193;-3,7696219710379344;1,2872462910473952;-3,7696219710379344;0,9116000973731193;1,2872462910473952;-13,519699697866756;38,23969237342448;0,9460737937559129
18:53:51.897;0;Mov;1;313;10,05;-3,324588906140324;-1,4738731755653554;0,891262550737022;-1,4738731755653554;-3,324588906140324;0,891262550737022;-13,91644032105472;27,222510452589496;10,711996826075014
18:53:51.897;0;Mov;1;314;10,05;-3,184618623538926;-1,3374920365764336;0,5538987276642658;-1,3374920365764336;-3,184618623538926;0,5538987276642658;-6,836146122623371;20,355845820490128;2,380443739127781
18:53:51.897;0;Mov;1;315;10,05;0,5491134611423079;-1,4415723136082035;0,5347575423635059;-1,4415723136082035;0,5491134611423079;0,5347575423635059;-2,4414807580797753;14,496292001098666;-5,4322946867275
18:53:51.899;0;Mov;1;316;9,96;1,536082057596057;-0,5933775192075869;0;-0,5933775192075869;1,536082057596057;0,33018586368335523;-4,791405987731559;9,24710837122715;-1,6479995117038484
18:53:51.899;0;Mov;1;317;9,96;0,6208929954298532;0;0;0,22849819010933256;0,6208929954298532;0,28352917235709707;-10,071108127079073;7,080294198431349;2,6245918149357585
18:53:51.899;0;Mov;1;318;9,96;1,003717178296762;0;0;0,11125828112601856;1,003717178296762;0,21414228623214668;-15,137180700094607;5,005035554063539;2,380443739127781
18:53:51.899;0;Mov;1;319;9,96;1,5468490115817743;0;0;-0,15552232428968168;1,5468490115817743;0,2775475444998016;-21,942808313241983;2,71614734336375;2,9602954191717274
18:53:51.899;0;Mov;1;320;9,96;0,5287759145062105;0;0;-0,44024782817888425;0,5287759145062105;0,35650503817674795;-30,060731833857233;0,24414807580797754;3,6011841181676685
18:53:51.920;0;Wrist;1;296;9,95;0;-1,9918820764793848;9,501217879268777;-1,9918820764793848;0,47135229899746695;9,501217879268777;-98,08648945585497;281,07547227393417;-121,03640858180486
18:53:51.920;0;Wrist;1;297;9,95;-0,532364879299295;-2,54099565683462;10,16398262733848;-2,54099565683462;-0,532364879299295;10,16398262733848;-67,65953550828577;219,5501571703238;-102,87789544358654
18:53:51.920;0;Wrist;1;298;9,95;4,544840750602741;4,023243182927946;10,996624843592638;4,023243182927946;4,544840750602741;10,996624843592638;-63,753166295358135;161,71758171330913;-105,19730216376232
18:53:51.920;0;Wrist;1;299;9,95;7,97949156163213;10,990643215735343;7,947191057313761;10,990643215735343;7,97949156163213;7,947191057313761;-64,33301797540209;113,22367015594958;-113,74248481704153
18:53:51.920;0;Wrist;1;300;9,95;11,611536568803979;9,038239692373425;6,799914452803125;9,038239692373425;11,611536568803979;6,799914452803125;-62,47138889736625;83,98693807794427;-105,74663533433026
18:53:51.959;0;Mov;1;321;9,96;0;-0,5670583447141941;0;-0,5670583447141941;-0,24046144582392345;0,34095278786584066;-32,654805139317;-1,1597033600878932;1,6174810022278512
18:53:51.959;0;Mov;1;322;9,96;0;-0,7189917042107914;0;-0,7189917042107914;-0,4426404614398633;0,19021577480296487;-29,54191717276528;-1,098666341135899;-0,640888698995941
18:53:51.959;0;Mov;1;323;9,96;-0,8290536090998566;-0,579021600428785;0;-0,579021600428785;-0,8290536090998566;0,10168767357402264;-23,07199316385388;-0,8545182653279214;-1,281777397991882
18:53:51.959;0;Mov;1;324;9,96;-0,7752189583841975;0;0;-0,39837643317781607;-0,7752189583841975;0,02273018548518231;-13,91644032105472;-1,2207403790398876;-0,4272591326639607
18:53:51.959;0;Mov;1;325;9,96;-0,708224750225074;0;0;-0,43306986878948334;-0,708224750225074;0,00598162785729545;-4,333628345591602;-2,0142216254158147;1,5259254737998595
18:53:51.981;0;Wrist;1;301;9,96;12,968169194616534;7,69356984542375;5,961290608691671;7,69356984542375;12,968169194616534;5,961290608691671;-53,95672475356304;59,66368602557451;-80,17212439344462
18:53:51.981;0;Wrist;1;302;9,96;14,320017090365306;9,459346484267709;4,6931855029450364;9,459346484267709;14,320017090365306;4,6931855029450364;-38,758507034516434;42,66487624744408;-50,355540635395364
18:53:51.981;0;Wrist;1;303;9,96;14,06998561815241;9,15428346354564;4,626191175572985;9,15428346354564;14,06998561815241;4,626191175572985;-28,504287850581377;28,839991454817348;-16,144291512802514
18:53:51.981;0;Wrist;1;304;9,96;13,279213843195897;9,26314870906705;4,694381447035127;9,26314870906705;13,279213843195897;4,694381447035127;-16,84621723075045;14,069032868434705;11,505478072450941
18:53:51.981;0;Wrist;1;305;9,96;12,933476325266273;9,433027130954924;4,628583540604877;9,433027130954924;12,933476325266273;4,628583540604877;-4,150517288735618;-1,7090365306558428;32,837916196172976
18:53:52.010;0;Wrist;1;306;9,84;12,474086924344615;9,038239692373425;4,6584916798913545;9,038239692373425;12,474086924344615;4,6584916798913545;7,263405255287331;-18,79940183721427;54,048280281991026
18:53:52.010;0;Wrist;1;307;9,84;11,759880367442854;8,792992950224312;4,674044198431349;8,792992950224312;11,759880367442854;4,674044198431349;18,097476119266336;-37,04947050386059;77,76116214484085
18:53:52.011;0;Wrist;1;308;9,84;10,630549600207527;8,458021790215765;4,479042844172491;8,458021790215765;10,630549600207527;4,479042844172491;27,253028962065493;-56,58131656849879;102,23700674459059
18:53:52.011;0;Wrist;1;309;9,84;9,2081181142613;7,996240501113926;4,3223245757927184;7,996240501113926;9,2081181142613;4,3223245757927184;34,058656575212865;-76,20471816156498;124,42396313364056
18:53:52.012;0;Wrist;1;310;9,84;7,593078592791528;7,377739989928892;4,323520519882809;7,377739989928892;7,593078592791528;4,323520519882809;39,582506790368356;-96,25537888729515;142,3993652150029
18:53:52.018;0;Mov;1;326;9,95;0;0;0;-0,4378551651146733;-0,10886562551261558;0,07776116214484084;3,204443494979705;-3,1128879665517135;3,662221137119663
18:53:52.018;0;Mov;1;327;9,95;0;0;0;-0,3194189395008698;0,19260842296555986;0,11365092928861355;7,4159978026673175;-3,4180730613116856;4,608294930875576
18:53:52.018;0;Mov;1;328;9,95;0;0;0;-0,22849819010933256;0,43665883358256785;0,15671865582178715;9,521774956511123;-2,9602954191717274;4,699850459303567
18:53:52.018;0;Mov;1;329;9,95;0,6232856584940641;0;0;-0,2667806203173162;0,6232856584940641;0,1435590685750908;9,949034089175084;-2,197332682271798;4,0284432508316295
18:53:52.018;0;Mov;1;330;9,95;0;0;0;-0,12681051653530992;0,3971801016457106;0,14595171673768578;9,155552842799157;-1,6785180211798456;3,6011841181676685
18:53:52.070;0;Wrist;1;311;9,96;6,137150181585131;6,6814783165990175;4,315146526993622;6,6814783165990175;6,137150181585131;4,315146526993622;44,89272743919187;-116,61122470778527;155,3697317423017
18:53:52.070;0;Wrist;1;312;9,96;4,836744571520127;5,999572740867336;4,368981177709281;5,999572740867336;4,836744571520127;4,368981177709281;48,58546708578753;-136,75344096194343;164,37269203772087
18:53:52.070;0;Wrist;1;313;9,96;3,604528994491409;5,1190770249031035;4,48861373485519;5,1190770249031035;3,604528994491409;4,48861373485519;52,1866512039552;-156,5904721213416;169,04202398754845
18:53:52.071;0;Wrist;1;314;9,96;2,976458069475387;4,166802251503037;4,337876617481002;4,166802251503037;2,976458069475387;4,337876617481002;56,12353892635883;-176,21387371440778;169,7439497054964
18:53:52.071;0;Wrist;1;315;9,96;2,51348012100589;3,2779320657979065;4,395300054170354;3,2779320657979065;2,51348012100589;4,395300054170354;58,656575212866606;-193,5178685872982;169,10306100650044
18:53:52.143;0;Mov;1;331;10,34;0;0;0;-0,20217903051755579;0,24165777735602892;0,10168767357402264;8,972441785943175;-1,6174810022278512;3,967406231879635
18:53:52.143;0;Mov;1;332;10,34;0;0;0;-0,39837643317781607;0,15671865582178715;0,026319163317180778;9,704886013367107;-2,0142216254158147;4,974517044587542
18:53:52.143;0;Mov;1;333;10,34;0;0;0;-0,37564622347750787;0,2249092104146321;0,04306772280776963;10,65095980712302;-2,71614734336375;6,042664876247444
18:53:52.143;0;Mov;1;334;10,34;0;0;0;-0,31224098011146884;0,2524247015385144;0,06460158234895245;10,98666341135899;-3,7232581560716573;7,263405255287331
18:53:52.143;0;Mov;1;335;10,34;0;0;0;-0,3888058107242042;0,23328348643452254;0,06819056204365291;11,566515091402936;-4,913480025635548;8,453627124851222
18:53:52.144;0;Mov;1;336;10,1;0;0;0;-0,44024782817888425;0,14714804826979125;0,04904935066506508;12,512588885158848;-6,317331461531419;9,491256447035127
18:53:52.144;0;Mov;1;337;10,1;0;0;0;-0,39119847378841516;0,2009826989854503;0,0011963255947428648;13,611255226294748;-7,354960783715323;10,65095980712302
18:53:52.144;0;Mov;1;338;10,1;0;0;0;-0,2488357218438139;0,3349711600085452;-0,04306772280776963;14,099551377910704;-7,17184972685934;10,773033845027008
18:53:52.144;0;Mov;1;339;10,1;0,6866909018601032;0;0;-0,19500107112815485;0,6866909018601032;0;12,26844080935087;-5,066072573015534;8,972441785943175
18:53:52.144;0;Mov;1;340;10,1;0;0;0;-0,09690236979802469;0,4809228916478469;0,05383465071565905;9,552293465987121;-3,5096285897396773;7,110812707907346
18:53:52.160;0;Wrist;1;316;10,08;1,9476180780205694;2,153386028626362;4,5077550393688774;2,153386028626362;1,9476180780205694;4,5077550393688774;61,67790765099033;-209,11282692953276;168,4011352885525
18:53:52.161;0;Wrist;1;317;10,08;1,5061739183095797;1,257338151760918;4,647724845118565;1,257338151760918;1,5061739183095797;4,647724845118565;65,34012878811;-221,56437879573963;167,18039490951261
18:53:52.161;0;Wrist;1;318;10,08;0,8601581097216712;0;5,120273445844905;0,15911130398438214;0,8601581097216712;5,120273445844905;68,88027588732567;-231,26926480910672;163,51817377239297
18:53:52.161;0;Wrist;1;319;10,08;0;-1,1843623157444991;5,657423532059695;-1,1843623157444991;0,04546037097036462;5,657423532059695;73,09183019501327;-239,72289193395795;156,5904721213416
18:53:52.161;0;Wrist;1;320;10,08;-0,6819055757316813;-2,5888486796929837;5,817731540116581;-2,5888486796929837;-0,6819055757316813;5,817731540116581;77,2728659932249;-245,4298532059694;147,8621784112064
18:53:52.162;0;Wrist;1;321;9,84;-1,4475539414654988;-3,777996202352977;6,005554368724631;-3,777996202352977;-1,4475539414654988;6,005554368724631;80,5078279976806;-245,7655568102054;137,91314432203131
18:53:52.162;0;Wrist;1;322;9,84;-1,1652211304437392;-5,5210425122837;6,108438463240455;-5,5210425122837;-1,1652211304437392;6,108438463240455;78,70723593859675;-243,93444624164556;127,1706289864803
18:53:52.162;0;Wrist;1;323;9,84;0;-7,471053193762017;4,872634338663899;-7,471053193762017;0,019141209515885837;4,872634338663899;72,26783043916136;-242,04229865413373;127,44529557176428
18:53:52.162;0;Wrist;1;324;9,84;0,5311685775704215;-9,003546823023164;3,140354625080111;-9,003546823023164;0,5311685775704215;3,140354625080111;63,53953672902615;-233,25296792504653;141,48380993072297
18:53:52.163;0;Wrist;1;325;9,84;0,654390099509415;-10,817176007873776;1,7597948917737358;-10,817176007873776;0,654390099509415;1,7597948917737358;52,06457716605121;-216,01001007110813;159,21506393627735
18:53:52.224;0;Wrist;1;326;9,97;0;-11,9740230262154;0;-11,9740230262154;0,07895748622613834;-0,2524247015385144;40,13183996093631;-193,97564622943815;172,30750450148014
18:53:52.224;0;Wrist;1;327;9,97;-1,0814783404416028;-12,780345889156774;-1,775347171887875;-12,780345889156774;-1,0814783404416028;-1,775347171887875;28,565324869533374;-169,07254249702444;176,85476241340373
18:53:52.224;0;Wrist;1;328;9,97;-2,7671010944700463;-13,858235801263467;-2,3878659360026857;-13,858235801263467;-2,7671010944700463;-2,3878659360026857;18,4942167424543;-147,67906735435042;169,4998016296884
18:53:52.224;0;Wrist;1;329;9,97;-4,739842104861599;-13,41320249794;-2,8137576963866087;-13,41320249794;-4,739842104861599;-2,8137576963866087;9,369182409131138;-129,39848017822808;153,5081026642659
18:53:52.224;0;Wrist;1;330;9,97;-5,793805028687399;-12,685836741233558;-3,55069434377575;-12,685836741233558;-5,793805028687399;-3,55069434377575;7,019257179479355;-117,28263191625722;129,2153691213721
18:53:52.310;0;Wrist;1;331;10,07;-7,032001995147557;-12,431019585253456;-4,154838995788445;-12,431019585253456;-7,032001995147557;-4,154838995788445;6,683553575243385;-101,62663655507065;100,34485915707877
18:53:52.310;0;Wrist;1;332;10,07;-7,212646774956511;-13,693143063142797;-4,129716063417463;-13,693143063142797;-7,212646774956511;-4,129716063417463;14,03851435895871;-89,69389934995574;70,80294198431349
18:53:52.310;0;Wrist;1;333;10,07;-6,451784092989898;-12,94065389721366;-6,011535996581927;-12,94065389721366;-6,451784092989898;-6,011535996581927;21,607104709006013;-79,77538377025667;42,48176519058809
18:53:52.310;0;Wrist;1;334;10,07;-6,188592467268899;-11,853193571275979;-7,0248239463484605;-11,853193571275979;-6,188592467268899;-7,0248239463484605;28,290658284249396;-58,99227881710257;7,93481246375927
18:53:52.310;0;Wrist;1;335;10,07;-5,226746326334422;-12,43700121311075;-7,14445650349437;-12,43700121311075;-5,226746326334422;-7,14445650349437;37,690359202856534;-35,27939695425275;-17,639698477126377
18:53:52.312;0;Wrist;1;336;9,84;-4,03879522461623;-11,240675641651661;-7,0008974349192785;-11,240675641651661;-4,03879522461623;-7,0008974349192785;47,57835627307962;-12,207403790398876;-33,295693838312935
18:53:52.312;0;Wrist;1;337;9,84;-2,950138954588458;-10,099380664998321;-6,632428872798853;-10,099380664998321;-2,950138954588458;-6,632428872798853;53,92620624408704;9,613330484939116;-42,72591326639607
18:53:52.312;0;Wrist;1;338;9,84;-1,3925229890209663;-9,478487311929685;-5,743559163945433;-9,478487311929685;-1,3925229890209663;-5,743559163945433;52,36976226081118;27,37510299996948;-44,31287575914792
18:53:52.312;0;Wrist;1;339;9,84;0;-8,060841509750663;-5,047297490615558;-8,060841509750663;-0,32300790429395426;-5,047297490615558;44,068727683339944;38,36176641132847;-40,68117313150426
18:53:52.312;0;Wrist;1;340;9,84;1,1113864797280801;-6,194574095126194;-5,053279118472854;-6,194574095126194;1,1113864797280801;-5,053279118472854;33,6924344615009;47,63939329203162;-31,495101779229103
18:53:52.388;0;Wrist;1;341;10,01;2,1330485415967284;-5,7268107013153475;-4,360606707968383;-5,7268107013153475;2,1330485415967284;-4,360606707968383;13,275551622058778;57,71050141911069;-20,599993896298106
18:53:52.388;0;Wrist;1;342;10,01;0;-5,41098084582049;-3,9502672276985993;-5,41098084582049;-0,13997008888039034;-3,9502672276985993;-15,533921323282572;69,73479415265358;-2,9908139286477247
18:53:52.388;0;Wrist;1;343;10,01;-2,2801966345713676;-5,024567400128178;-3,3042511806848354;-5,024567400128178;-2,2801966345713676;-3,3042511806848354;-35,15732291634877;75,50279244361705;21,05777153843806
18:53:52.388;0;Wrist;1;344;10,01;-3,0781457430494097;-4,866652710806604;-4,018457499160741;-4,866652710806604;-3,0781457430494097;-4,018457499160741;-64,24146244697408;96,16382335886715;38,14813684499649
18:53:52.388;0;Wrist;1;345;10,01;-6,892031712546159;-2,7611194666127505;0;-2,7611194666127505;-6,892031712546159;-0,40435806103511157;-109,7140415662099;119,84618671224098;53,77361369670705
18:53:52.431;0;Wrist;1;346;9,96;-11,582824373607593;4,867848654896695;10,353001876888333;4,867848654896695;-11,582824373607593;10,353001876888333;-123,17270424512466;162,60261848811305;44,068727683339944
18:53:52.431;0;Wrist;1;347;9,96;-9,638795319986572;4,331894989623707;14,180046807763908;4,331894989623707;-9,638795319986572;14,180046807763908;-98,66634113589892;186,59016693624685;-8,209479049043244
18:53:52.431;0;Wrist;1;348;9,96;-12,122366824854273;-6,275924043244728;8,289340266121403;-6,275924043244728;-12,122366824854273;8,289340266121403;-72,42042298654134;143,6506241035188;-32,50221259193701
18:53:52.431;0;Wrist;1;349;9,96;-11,14018391216773;-5,978039071321756;3,8318308530686362;-5,978039071321756;-11,14018391216773;3,8318308530686362;-22,095400860621968;120,45655690176092;-43,519394512771996
18:53:52.431;0;Wrist;1;350;9,96;-1,8710532176046022;1,4152531987212744;3,9933348052156132;1,4152531987212744;-1,8710532176046022;3,9933348052156132;11,963255714590899;116,88589129306925;-60,39613025299845
18:53:52.460;0;Mov;1;341;11,11;0,5299722162350841;0;0;-0,20935697500534073;0,5299722162350841;0,05024567474636257;7,690664387951292;-2,6551103244117558;6,042664876247444
18:53:52.460;0;Mov;1;342;11,11;0;0;0;-0,22849819010933256;0,3349711600085452;0,009570604757942918;6,378368480483413;-2,197332682271798;5,340739158299509
18:53:52.460;0;Mov;1;343;11,11;0;0;0;-0,1961974026602603;0,31224098011146884;0,007177953801294938;5,920590838343455;-1,9837031159398175;5,066072573015534
18:53:52.460;0;Mov;1;344;11,11;0;0;0;-0,17825251908837397;0,3182226079687643;0,014355907602589877;5,523850215155492;-1,73955504013184;5,249183629871517
18:53:52.460;0;Mov;1;345;11,11;0;0;0;-0,18543046357615894;0,32061527103297527;0,013159581658590389;4,821924497207556;-1,0376293221839046;5,523850215155492
18:53:52.461;0;Mov;1;346;10,89;0;0;0;-0,13997008888039034;0,37564622347750787;0,0478530228583636;3,936887722403638;-0,36622211371196634;6,103701895199438
18:53:52.461;0;Mov;1;347;10,89;0;0;0;-0,10527665326872311;0,42110661307489244;0,05144199882766007;2,9297769096957307;0,7019257179479355;6,591998046815394
18:53:52.461;0;Mov;1;348;10,89;0;0;0;-0,10408032918742562;0,354112375112537;0,03947874311306917;1,8921475875118259;2,075258644367809;6,714072084719382
18:53:52.461;0;Mov;1;349;10,89;0,5263832514419996;0;0;0,0346934430624752;0,5263832514419996;0,08852809377813425;0,8850367748039186;3,814813684499649;6,836146122623371
18:53:52.461;0;Mov;1;350;10,89;0;0;0;-0,038282419031771674;0,23328348643452254;0,10168767357402264;-0,09155552842799158;5,859553819391461;6,591998046815394
18:53:52.463;0;Mov;1;351;10,78;0;0;0;-0,08015381775824382;0,2787438760319071;0,052638326634361556;-0,640888698995941;7,72118289742729;7,110812707907346
18:53:52.463;0;Mov;1;352;10,78;0;0;0;-0,052638326634361556;0,3194189395008698;0,08733176969683676;-1,098666341135899;9,765923032319101;7,477034821619312
18:53:52.463;0;Mov;1;353;10,78;0;0;0;-0,10168767357402264;0,239265114291818;0,07297585836884289;-1,9531846064638203;12,17688528092288;7,873775444807276
18:53:52.463;0;Mov;1;354;10,78;0;0;0;-0,17585985602416304;0,009570604757942918;0,06460158234895245;-2,838221381267739;14,465773491622668;9,67436750389111
18:53:52.463;0;Mov;1;355;10,78;0;0;0;-0,12681051653530992;0,25362103307061984;0,1315958128604999;-2,685628833887753;16,815698721274455;11,41392254402295
18:53:52.464;0;Wrist;1;351;9,98;1,5839350804544206;1,4068788481933043;0,9080111325800347;1,4068788481933043;1,5839350804544206;0,9080111325800347;24,01806695760979;100,43641468550676;-53,59050263985107
18:53:52.464;0;Wrist;1;352;9,98;4,202692018646809;-2,2455030499435407;-1,3362957348475601;-2,2455030499435407;4,202692018646809;-1,3362957348475601;15,717032380138553;90,85360271004365;-29,602954191717277
18:53:52.464;0;Wrist;1;353;9,98;7,457893993957335;-4,916898098696859;-0,5598803555215613;-4,916898098696859;7,457893993957335;-0,5598803555215613;-5,188146610919523;78,95138401440474;-26,73421430097354
18:53:52.464;0;Wrist;1;354;9,98;10,881777970213935;-3,840205084383679;0;-3,840205084383679;10,881777970213935;-0,46776330440115055;-33,63139744254891;59,90783410138249;-13,824884792626728
18:53:52.465;0;Wrist;1;355;9,98;5,688528092287973;-1,8866054977187414;0;-1,8866054977187414;5,688528092287973;-0,0693868861249504;-62,10516678365428;39,76561784722434;-5,127109591967528
18:53:52.494;0;Mov;1;356;10,67;0;0;0;-0,06220893046095347;0,38402051439901425;0,1866267951082644;-2,410962248603778;20,203253273110143;11,139255958738975
18:53:52.494;0;Mov;1;357;10,67;0;0;0;-0,06699423051154745;0,21414228623214668;0,25720999786370435;-3,1434064760277107;24,53688161870174;11,261329996642964
18:53:52.495;0;Mov;1;358;10,67;0;0;0;-0,0598162785729545;0,3553087066446425;0,36846829389133884;-4,058961760307627;29,66399121066927;12,115848261970886
18:53:52.495;0;Mov;1;359;10,67;0;0;0;-0,0957060457167272;0,3971801016457106;0,4342662003215888;-4,760887478255562;36,22547074800867;12,421033356730858
18:53:52.495;0;Mov;1;360;10,67;0;0;0;-0,07417218990094836;0,41871395001068146;0,4665669728690451;-5,920590838343455;43,79406109805597;12,543107394634847
18:53:52.496;0;Mov;1;361;10,55;0;0;0,5204016235847041;-0,04546037097036462;0,4665669728690451;0,5204016235847041;-8,178960539567248;52,613910336619156;13,122959074678793
18:53:52.496;0;Mov;1;362;10,55;0;0;0,579021600428785;0,05383465071565905;0,38760947919209876;0,579021600428785;-10,620441297647023;62,47138889736625;13,824884792626728
18:53:52.496;0;Mov;1;363;10,55;0;0;0,6340525528733176;0,0693868861249504;0,4474257577650533;0,6340525528733176;-12,695699942014832;73,21390423291726;14,1300698873867
18:53:52.496;0;Mov;1;364;10,55;0;0;0,7429182156399732;0,08852809377813425;0,4270882409321879;0,7429182156399732;-14,526810510574663;85,29923398541216;14,099551377910704
18:53:52.496;0;Mov;1;365;10,55;0,6089297397152623;0;0,8314462721640675;0,2476394052133244;0,6089297397152623;0,8314462721640675;-16,2968840601825;98,54426709799493;14,03851435895871
18:53:52.497;0;Mov;1;366;10,31;0,6185003323656423;0;0,9678274111529893;0,2667806203173162;0,6185003323656423;0,9678274111529893;-18,70784630878628;112,73537400433362;13,702810754722739
18:53:52.497;0;Mov;1;367;10,31;0,6328562511444441;0;1,1520615730002746;0,39837643317781607;0,6328562511444441;1,1520615730002746;-20,630512405774102;128,72707296975616;13,214514603106783
18:53:52.497;0;Mov;1;368;10,31;0;0,6113224027794733;1,5109592444380016;0,6113224027794733;0,2823328408249916;1,5109592444380016;-23,010956144901883;147,67906735435042;12,359996337778863
18:53:52.497;0;Mov;1;369;10,31;-0,5646656816499832;0,6866909018601032;1,8124332407605213;0,6866909018601032;-0,5646656816499832;1,8124332407605213;-23,987548448133793;171,30039368877223;12,665181432538835
18:53:52.497;0;Mov;1;370;10,31;-0,8948515155301066;0,7237769707327494;1,794488357188635;0,7237769707327494;-0,8948515155301066;1,794488357188635;-26,0933256019776;197,48527481917782;19,440290536210213
18:53:52.499;0;Mov;1;371;10,08;0;0,5754326356357006;1,9177099387340921;0,5754326356357006;-0,46058534501174964;1,9177099387340921;-34,45539719840083;225,22659993285927;32,07495345927305
18:53:52.499;0;Mov;1;372;10,08;0;0,6807092740028077;2,4428967692342907;0,6807092740028077;-0,32061527103297527;2,4428967692342907;-47,27317117831965;257,33207190160834;44,282357249671925
18:53:52.499;0;Mov;1;373;10,08;0;1,247767618717002;3,2372570917386394;1,247767618717002;-0,3708609271523179;3,2372570917386394;-62,379833368938264;298,0132450331126;55,940427869502855
18:53:52.499;0;Mov;1;374;10,08;0;1,5791497543259987;3,7325357829523607;1,5791497543259987;-0,41632131674970246;3,7325357829523607;-76,84560686056093;346,7207861568041;67,50694296090579
18:53:52.499;0;Mov;1;375;10,08;-0,661568029095584;1,435590685750908;3,6464003894924772;1,435590685750908;-0,661568029095584;3,6464003894924772;-93,5087130344554;403,88195440534685;82,82723471785638
18:53:52.501;0;Mov;1;376;9,97;-0,6412305420659505;0,6436231455236976;3,526767832346568;0,6436231455236976;-0,6412305420659505;3,526767832346568;-104,15967284157841;470,5648976104007;101,53508102664266
18:53:52.501;0;Mov;1;377;9,97;-0,8398205630855738;-0,8972441785943175;4,706344702749718;-0,8972441785943175;-0,8398205630855738;4,706344702749718;-98,48323007904294;542,4054689168981;121,95196386608478
18:53:52.501;0;Mov;1;378;9,97;-3,323392485198523;-2,844862256614887;11,627088610492263;-2,844862256614887;-3,323392485198523;11,627088610492263;-95,5839716788232;580,3399761955626;145,23758659627063
18:53:52.501;0;Mov;1;379;9,97;-8,071608821375165;-7,13368966872158;18,02384067812128;-7,13368966872158;-8,071608821375165;18,02384067812128;-50,569170201727346;512,5278481398968;170,20172734763634
18:53:52.501;0;Mov;1;380;9,97;-7,374151203955199;-10,817176007873776;16,60739272743919;-10,817176007873776;-7,374151203955199;16,60739272743919;23,224585711233864;360,8508560441908;176,0612811670278
18:53:52.526;0;Wrist;1;356;9,98;0;-0,6436231455236976;1,04558857329783;-0,6436231455236976;-0,4342662003215888;1,04558857329783;-75,0144962920011;24,445326090273753;-0,36622211371196634
18:53:52.526;0;Wrist;1;357;9,98;-0,522794286648915;0;1,4343943840220343;0,29309976500747703;-0,522794286648915;1,4343943840220343;-70,98605304116947;15,594958342234566;-6,897183141575366
18:53:52.526;0;Wrist;1;358;9,98;-1,1341166894283883;0;1,6808374279000213;0,18782311173875393;-1,1341166894283883;1,6808374279000213;-61,403241065706354;10,98666341135899;-6,561479537339396
18:53:52.526;0;Wrist;1;359;9,98;-2,6091861667226173;0;2,113907237083041;-0,1818414838814585;-2,6091861667226173;2,113907237083041;-48,066652424695576;7,965330973235267;-3,6011841181676685
18:53:52.526;0;Wrist;1;360;9,98;-2,1163000789666433;0;1,555223242896817;-0,23089083827192755;-2,1163000789666433;1,555223242896817;-31,86132389294107;6,103701895199438;-4,24207281716361
18:53:52.559;0;Mov;1;381;9,96;-4,330698568681906;-6,418286690878017;15,856099505600147;-6,418286690878017;-4,330698568681906;15,856099505600147;46,05243079927976;226,38630329294716;134,8002563554796
18:53:52.559;0;Mov;1;382;9,96;2,191668399227882;2,125870492797632;21,512327570421462;2,125870492797632;2,191668399227882;21,512327570421462;-11,658070619830928;116,58070619830927;107,97448652607807
18:53:52.559;0;Mov;1;383;9,96;4,2146552743614;8,527408482619709;18,630378887295144;8,527408482619709;4,2146552743614;18,630378887295144;-57,100131229590744;4,943998535111545;129,79522080141606
18:53:52.559;0;Mov;1;384;9,96;-3,320999881740776;10,930826937162388;12,153471861934262;10,930826937162388;-3,320999881740776;12,153471861934262;7,110812707907346;-34,48591570787683;196,60023804437392
18:53:52.559;0;Mov;1;385;9,96;-1,7932920554597613;8,650630779442732;11,930954733420819;8,650630779442732;-1,7932920554597613;11,930954733420819;-11,597033600878934;-65,00442518387402;201,94097720267342
18:53:52.610;0;Wrist;1;361;10,08;-0,5742362743003632;0;1,1975218731879635;0,21055330653744622;-0,5742362743003632;1,1975218731879635;-20,508438367870113;5,7374797814874725;-2,563554795983764
18:53:52.610;0;Wrist;1;362;10,08;0;0;0,994146585646382;0,31224098011146884;-0,3385601546048616;0,994146585646382;-13,91644032105472;5,4322946867275;-0,4882961516159551
