Frecuencia (Hz);100
time;timespan;canal;id;sample;gap;accX;accY;accZ;rawAccX;rawAccY;rawAccZ;rawGirX;rawGirY;rawGirZ
18:54:31.939;0;Mov;1;1261;12,4;0;0;0;-0,354112375112537;0,3313821952154607;-0,05383465071565905;0;-0,061037018951994385;-0,640888698995941
18:54:31.939;0;Mov;1;1262;12,4;0;0;0;-0,297885061332667;0,3134373116435743;-0,05383465071565905;0;-0,030518509475997192;-0,6714072084719382
18:54:31.939;0;Mov;1;1263;12,4;0;0;0;-0,3182226079687643;0,33257852674756616;-0,03947874311306917;0,18311105685598317;-0,030518509475997192;-0,5188146610919523
18:54:31.939;0;Mov;1;1264;12,4;0;0;0;-0,31224098011146884;0,30745568378627885;-0,0358897671437727;0,24414807580797754;0;-0,4882961516159551
18:54:31.939;0;Mov;1;1265;12,4;0;0;0;-0,3194189395008698;0,3146336431756798;-0,031104465230476736;0,18311105685598317;0,030518509475997192;-0,4882961516159551
18:54:31.941;0;Wrist;1;1236;11,96;0,7213843076685384;0,766844727069155;0;0,766844727069155;0,7213843076685384;0,2679769220461898;-0,8850367748039186;1,4954069643238623;-1,4954069643238623
18:54:31.941;0;Wrist;1;1237;11,96;0,7046357854319895;0,7512924469550157;0;0,7512924469550157;0,7046357854319895;0,2476394052133244;-0,7019257179479355;1,7090365306558428;-1,4648884548478653
18:54:31.941;0;Wrist;1;1238;11,96;0,7321512616542558;0,7500961452261422;0;0,7500961452261422;0,7321512616542558;0,24285409398651844;-0,7019257179479355;1,6479995117038484;-1,4648884548478653
18:54:31.941;0;Wrist;1;1239;11,96;0,7309549599253823;0,7788079827837459;0;0,7788079827837459;0,7309549599253823;0,25362103307061984;-0,7019257179479355;1,5564439832758568;-1,586962492751854
18:54:31.941;0;Wrist;1;1240;11,96;0,7165990411465804;0,7608630992118595;0;0,7608630992118595;0,7165990411465804;0,26199529418889433;-0,6103701895199438;1,6174810022278512;-1,7090365306558428
18:54:31.942;0;Mov;1;1266;11,22;0;0;0;-0,29190343347537157;0,30745568378627885;-0,021533861403884816;0,3357036042359691;-0,15259254737998595;-0,4272591326639607
18:54:31.942;0;Mov;1;1267;11,22;0;0;0;-0,31104464857936337;0,3134373116435743;-0,056227302603658026;0,3357036042359691;-0,030518509475997192;-0,27466658528397475
18:54:31.942;0;Mov;1;1268;11,22;0;0;0;-0,31104464857936337;0,3361674915406507;-0,019141209515885837;0,27466658528397475;0;-0,36622211371196634
18:54:31.942;0;Mov;1;1269;11,22;0;0;0;-0,30745568378627885;0,32061527103297527;-0,020337535459885328;0,09155552842799158;0,15259254737998595;-0,4882961516159551
18:54:31.942;0;Mov;1;1270;11,22;0;0;0;-0,3014740559289834;0,3026703874610889;-0,04904935066506508;0,27466658528397475;0,18311105685598317;-0,3051850947599719
18:54:31.943;0;Wrist;1;1241;10,9;0,7620594009407331;0,764452064004944;0;0,764452064004944;0,7620594009407331;0,25362103307061984;-0,7324442274239327;1,6479995117038484;-1,6174810022278512
18:54:31.943;0;Wrist;1;1242;10,9;0,7225806690038759;0,766844727069155;0;0,766844727069155;0,7225806690038759;0,2560136663315989;-0,8239997558519242;1,6785180211798456;-1,586962492751854
18:54:31.943;0;Wrist;1;1243;10,9;0,708224750225074;0,774022656655324;0;0,774022656655324;0,708224750225074;0,2679769220461898;-0,7019257179479355;1,6174810022278512;-1,5564439832758568
18:54:31.943;0;Wrist;1;1244;10,9;0,7189917042107914;0,7656483657338176;0;0,7656483657338176;0,7189917042107914;0,2667806203173162;-0,7019257179479355;1,586962492751854;-1,6479995117038484
18:54:31.943;0;Wrist;1;1245;10,9;0,7165990411465804;0,7620594009407331;0;0,7620594009407331;0,7165990411465804;0,2703695851104007;-0,7629627368999298;1,5259254737998595;-1,586962492751854
18:54:31.944;0;Mov;1;1271;10,23;0;0;0;-0,3050630207220679;0,32300790429395426;-0,027515489261180266;0,3967406231879635;0,18311105685598317;-0,3051850947599719
18:54:31.944;0;Mov;1;1272;10,23;0;0;0;-0,3050630207220679;0,290707131746498;-0,028711815205179753;0,36622211371196634;0,18311105685598317;-0,36622211371196634
18:54:31.944;0;Mov;1;1273;10,23;0;0;0;-0,30386668918996246;0,34095278786584066;-0,038282419031771674;0,3051850947599719;0,18311105685598317;-0,27466658528397475
18:54:31.944;0;Mov;1;1274;10,23;0;0;0;-0,3218115727618488;0,29668875960379343;-0,038282419031771674;0,3357036042359691;0,12207403790398877;-0,36622211371196634
18:54:31.944;0;Mov;1;1275;10,23;0;0;0;-0,32779320061914424;0,28472550388920254;-0,00598162785729545;0,36622211371196634;0,3357036042359691;-0,3357036042359691
18:54:31.945;0;Wrist;1;1246;10,03;0,7500961452261422;0,7823969475768303;0;0,7823969475768303;0,7500961452261422;0,2584063293958098;-0,640888698995941;1,4343699453718681;-1,2207403790398876
18:54:31.945;0;Wrist;1;1247;10,03;0,7453108190977202;0,7943602032914212;0;0,7943602032914212;0,7453108190977202;0,236872466129223;-0,793481246375927;1,281777397991882;-1,1902218695638904
18:54:31.945;0;Wrist;1;1248;10,03;0,7261696337969603;0,7955565050202948;0;0,7955565050202948;0,7261696337969603;0,239265114291818;-0,9155552842799157;1,3428144169438765;-1,2512588885158848
18:54:31.945;0;Wrist;1;1249;10,03;0,7237769707327494;0,7608630992118595;0;0,7608630992118595;0,7237769707327494;0,26199529418889433;-0,9155552842799157;1,403851435895871;-1,2207403790398876
18:54:31.945;0;Wrist;1;1250;10,03;0,7189917042107914;0,7584704361476485;0;0,7584704361476485;0,7189917042107914;0,24524674214911343;-0,9460737937559129;1,4648884548478653;-1,1597033600878932
18:54:32.005;0;Wrist;1;1251;10,18;0,7500961452261422;0,7764153197195349;0;0,7764153197195349;0,7500961452261422;0,2476394052133244;-0,8850367748039186;1,403851435895871;-1,0681478316599018
18:54:32.005;0;Wrist;1;1252;10,18;0,7285622968611714;0,7524888082903531;0;0,7524888082903531;0,7285622968611714;0,2440504255186239;-0,9765923032319102;1,281777397991882;-1,098666341135899
18:54:32.005;0;Wrist;1;1253;10,18;0,6866909018601032;0,7632557026696066;0;0,7632557026696066;0,6866909018601032;0,239265114291818;-0,9460737937559129;1,2207403790398876;-1,2207403790398876
18:54:32.005;0;Wrist;1;1254;10,18;0,7154026798112431;0,7680410287980285;0;0,7680410287980285;0,7154026798112431;0,2524247015385144;-0,8545182653279214;1,2207403790398876;-1,0071108127079074
18:54:32.005;0;Wrist;1;1255;10,18;0,7034394240966522;0,764452064004944;0;0,764452064004944;0,7034394240966522;0,2667806203173162;-0,793481246375927;1,2207403790398876;-0,9460737937559129
18:54:32.061;0;Wrist;1;1256;10,27;0,6914761683820613;0,7680410287980285;0;0,7680410287980285;0,6914761683820613;0,2584063293958098;-0,7324442274239327;1,281777397991882;-0,8850367748039186
18:54:32.062;0;Wrist;1;1257;10,27;0,6962614945104831;0,7572740748123111;0;0,7572740748123111;0,6962614945104831;0,239265114291818;-0,8239997558519242;1,0071108127079074;-0,7324442274239327
18:54:32.062;0;Wrist;1;1258;10,27;0,7070284484962004;0,7465071804330576;0;0,7465071804330576;0,7070284484962004;0,2667806203173162;-0,8239997558519242;0,9460737937559129;-0,6103701895199438
18:54:32.062;0;Wrist;1;1259;10,27;0,7130100763534959;0,7512924469550157;0;0,7512924469550157;0,7130100763534959;0,2631916257209998;-0,6714072084719382;0,9155552842799157;-0,5188146610919523
18:54:32.062;0;Wrist;1;1260;10,27;0,7213843076685384;0,7548814713545641;0;0,7548814713545641;0,7213843076685384;0,2560136663315989;-0,7629627368999298;0,8545182653279214;-0,4882961516159551
18:54:32.072;0;Mov;1;1276;11,52;0;0;0;-0,31104464857936337;0,290707131746498;-0,0346934430624752;0,4272591326639607;0,27466658528397475;-0,24414807580797754
18:54:32.072;0;Mov;1;1277;11,52;0;0;0;-0,3194189395008698;0,2751548814355907;-0,04306772280776963;0,24414807580797754;0,18311105685598317;-0,18311105685598317
18:54:32.072;0;Mov;1;1278;11,52;0;0;0;-0,29190343347537157;0,2859218056180761;-0,02990813928647725;0,21362956633198035;0,09155552842799158;-0,18311105685598317
18:54:32.072;0;Mov;1;1279;11,52;0;0;0;-0,2751548814355907;0,2823328408249916;-0,03947874311306917;0,3357036042359691;0,12207403790398877;-0,24414807580797754
18:54:32.072;0;Mov;1;1280;11,52;0;0;0;-0,31224098011146884;0,28472550388920254;-0,0478530228583636;0,3967406231879635;0,09155552842799158;-0,27466658528397475
18:54:32.090;0;Wrist;1;1261;9,96;0,7189917042107914;0,764452064004944;0;0,764452064004944;0,7189917042107914;0,2512283700064089;-0,7019257179479355;0,7629627368999298;-0,3967406231879635
18:54:32.090;0;Wrist;1;1262;9,96;0,7225806690038759;0,7716299935911131;0;0,7716299935911131;0,7225806690038759;0,2548173646027253;-0,8850367748039186;0,8239997558519242;-0,4272591326639607
18:54:32.091;0;Wrist;1;1263;9,96;0,7118137150181585;0,7512924469550157;0;0,7512924469550157;0,7118137150181585;0,2584063293958098;-0,8850367748039186;0,7324442274239327;-0,3051850947599719
18:54:32.091;0;Wrist;1;1264;9,96;0,7261696337969603;0,774022656655324;0;0,774022656655324;0,7261696337969603;0,23806879766132846;-0,793481246375927;0,6103701895199438;-0,3357036042359691
18:54:32.091;0;Wrist;1;1265;9,96;0,7297585985900449;0,774022656655324;0;0,774022656655324;0,7297585985900449;0,2488357218438139;-0,8545182653279214;0,5798516800439466;-0,21362956633198035
18:54:32.151;0;Wrist;1;1266;10,1;0,7441145173688467;0,7500961452261422;0;0,7500961452261422;0,7441145173688467;0,2584063293958098;-0,8545182653279214;0,4272591326639607;-0,09155552842799158
18:54:32.151;0;Wrist;1;1267;10,1;0,7070284484962004;0,7369365877826777;0;0,7369365877826777;0,7070284484962004;0,2667806203173162;-0,8850367748039186;0,3051850947599719;-0,21362956633198035
18:54:32.151;0;Wrist;1;1268;10,1;0,7201880059396649;0,7620594009407331;0;0,7620594009407331;0,7201880059396649;0,2560136663315989;-1,0071108127079074;0,27466658528397475;-0,21362956633198035
18:54:32.151;0;Wrist;1;1269;10,1;0,7094210519539476;0,7429182156399732;0;0,7429182156399732;0,7094210519539476;0,2667806203173162;-1,586962492751854;0,3357036042359691;-0,18311105685598317
18:54:32.151;0;Wrist;1;1270;10,1;0,7249733320680868;0,7512924469550157;0;0,7512924469550157;0,7249733320680868;0,2715659166425062;-2,4414807580797753;-0,3357036042359691;-0,09155552842799158
18:54:32.157;0;Mov;1;1281;11,94;0;0;0;-0,31104464857936337;0,28472550388920254;-0,031104465230476736;0,4272591326639607;0,061037018951994385;-0,27466658528397475
18:54:32.157;0;Mov;1;1282;11,94;0;0;0;-0,29549242807168796;0,2823328408249916;-0,0346934430624752;0,36622211371196634;0,12207403790398877;-0,24414807580797754
18:54:32.157;0;Mov;1;1283;11,94;0;0;0;-0,31582994490455335;0,30027772439687794;-0,028711815205179753;0,3967406231879635;0;-0,24414807580797754
18:54:32.157;0;Mov;1;1284;11,94;0;0;0;-0,31582994490455335;0,28113650929288614;-0,05024567474636257;0,3051850947599719;-0,09155552842799158;-0,15259254737998595
18:54:32.157;0;Mov;1;1285;11,94;0;0;0;-0,297885061332667;0,2775475444998016;-0,04904935066506508;0,3967406231879635;-0,12207403790398877;-0,24414807580797754
18:54:32.159;0;Mov;1;1286;11,11;0;0;0;-0,3194189395008698;0,2799401777607807;-0,04904935066506508;0,24414807580797754;-0,24414807580797754;-0,24414807580797754
18:54:32.159;0;Mov;1;1287;11,11;0;0;0;-0,2871181371501816;0,2667806203173162;-0,014355907602589877;0,18311105685598317;-0,3051850947599719;-0,18311105685598317
18:54:32.159;0;Mov;1;1288;11,11;0;0;0;-0,297885061332667;0,2715659166425062;-0,01674855762788686;0,21362956633198035;-0,4272591326639607;-0,24414807580797754
18:54:32.159;0;Mov;1;1289;11,11;0;0;0;-0,297885061332667;0,26199529418889433;-0,038282419031771674;0,3357036042359691;-0,5798516800439466;-0,27466658528397475
18:54:32.159;0;Mov;1;1290;11,11;0;0;0;-0,2895108002143925;0,26079899246002075;-0,02273018548518231;0,24414807580797754;-0,640888698995941;-0,3357036042359691
18:54:32.161;0;Mov;1;1291;10,4;0;0;0;-0,29549242807168796;0,25720999786370435;-0,0346934430624752;0,3051850947599719;-0,7019257179479355;-0,3357036042359691
18:54:32.161;0;Mov;1;1292;10,4;0;0;0;-0,28472550388920254;0,2631916257209998;-0,03230079117447623;0,3967406231879635;-0,7629627368999298;-0,3967406231879635
18:54:32.161;0;Mov;1;1293;10,4;0;0;0;-0,3050630207220679;0,2703695851104007;-0,03708609495047418;0,27466658528397475;-0,9155552842799157;-0,45777764213995786
18:54:32.161;0;Mov;1;1294;10,4;0;0;0;-0,30386668918996246;0,24165777735602892;-0,05742363041035951;0,21362956633198035;-0,9460737937559129;-0,21362956633198035
18:54:32.161;0;Mov;1;1295;10,4;0;0;0;-0,3014740559289834;0,26079899246002075;-0,06220893046095347;0,21362956633198035;-1,0681478316599018;-0,36622211371196634
18:54:32.221;0;Mov;1;1296;10,5;0;0;0;-0,2990813928647725;0,26917325357829525;-0,021533861403884816;0,21362956633198035;-1,1902218695638904;-0,3357036042359691
18:54:32.221;0;Mov;1;1297;10,5;0;0;0;-0,28831446868228705;0,2787438760319071;-0,05144199882766007;0,15259254737998595;-1,1902218695638904;-0,24414807580797754
18:54:32.221;0;Mov;1;1298;10,5;0;0;0;-0,29309976500747703;0,26438795725310527;-0,0466566987770661;0,18311105685598317;-1,2512588885158848;-0,27466658528397475
18:54:32.221;0;Mov;1;1299;10,5;0;0;0;-0,30745568378627885;0,2560136663315989;-0,04426404688906713;0,12207403790398877;-1,1597033600878932;-0,15259254737998595
18:54:32.221;0;Mov;1;1300;10,5;0;0;0;-0,32420423582605973;0,2476394052133244;-0,038282419031771674;0,061037018951994385;-1,1902218695638904;-0,15259254737998595
18:54:32.222;0;Mov;1;1301;9,9;0;0;0;-0,32061527103297527;0,26438795725310527;-0,025122837373181287;0,12207403790398877;-1,2207403790398876;-0,24414807580797754
18:54:32.222;0;Mov;1;1302;9,9;0;0;0;-0,32061527103297527;0,2703695851104007;-0,0478530228583636;0,15259254737998595;-1,3733329264198737;-0,3967406231879635
18:54:32.223;0;Mov;1;1303;9,9;0;0;0;-0,32300790429395426;0,2631916257209998;-0,058619954491657;0,18311105685598317;-1,4954069643238623;-0,45777764213995786
18:54:32.223;0;Mov;1;1304;9,9;0;0;0;-0,33018586368335523;0,2871181371501816;-0,03349711525577372;0,061037018951994385;-1,4954069643238623;-0,5493331705679495
18:54:32.223;0;Mov;1;1305;9,9;0;0;0;-0,3337748284764397;0,2596026609279153;-0,05024567474636257;0;-1,5564439832758568;-0,640888698995941
18:54:32.240;0;Wrist;1;1271;10,55;0,701046820638905;0,7704336918622394;0;0,7704336918622394;0,701046820638905;0,2560136663315989;-3,2654805139316996;-0,9155552842799157;0
18:54:32.240;0;Wrist;1;1272;10,55;0,7118137150181585;0,7477034821619312;0;0,7477034821619312;0,7118137150181585;0,2512283700064089;-4,089480269783624;-1,281777397991882;0,12207403790398877
18:54:32.240;0;Wrist;1;1273;10,55;0,6807092740028077;0,7441145173688467;0;0,7441145173688467;0,6807092740028077;0,2667806203173162;-4,547257911923582;-1,586962492751854;0,18311105685598317
18:54:32.240;0;Wrist;1;1274;10,55;0,6484084716521195;0,7201880059396649;0;0,7201880059396649;0,6484084716521195;0,26558428878521073;-4,821924497207556;-1,922666096987823;0,18311105685598317
18:54:32.240;0;Wrist;1;1275;10,55;0,6687460182882168;0,717795342875454;0;0,717795342875454;0,6687460182882168;0,2512283700064089;-4,1810357982116155;-1,586962492751854;0,4272591326639607
18:54:32.242;0;Wrist;1;1276;9,99;0,6890835649243141;0,717795342875454;0;0,717795342875454;0,6890835649243141;0,2584063293958098;-3,295999023407697;-1,1902218695638904;0,6103701895199438
18:54:32.242;0;Wrist;1;1277;9,99;0,6699423200170904;0,7477034821619312;0;0,7477034821619312;0,6699423200170904;0,2524247015385144;-2,380443739127781;-0,8545182653279214;0,6103701895199438
18:54:32.242;0;Wrist;1;1278;9,99;0,6878872035889767;0,7225806690038759;0;0,7225806690038759;0,6878872035889767;0,23208716980403302;-1,586962492751854;-0,640888698995941;0,6714072084719382
18:54:32.242;0;Wrist;1;1279;9,99;0,6699423200170904;0,7261696337969603;0;0,7261696337969603;0,6699423200170904;0,25003203847430344;-0,9155552842799157;-0,5188146610919523;0,6714072084719382
18:54:32.242;0;Wrist;1;1280;9,99;0,7022431223677785;0,7716299935911131;0;0,7716299935911131;0,7022431223677785;0,26558428878521073;-0,4882961516159551;-0,27466658528397475;0,7324442274239327
18:54:32.278;0;Mov;1;1306;9,98;0;0;0;-0,32061527103297527;0,28113650929288614;-0,05503097852236053;0;-1,73955504013184;-0,5798516800439466
18:54:32.279;0;Mov;1;1307;9,98;0;0;0;-0,30745568378627885;0,2715659166425062;-0,04187139500106815;0;-1,8311105685598315;-0,7629627368999298
18:54:32.279;0;Mov;1;1308;9,98;0;0;0;-0,29549242807168796;0,2560136663315989;-0,058619954491657;-0,15259254737998595;-1,8921475875118259;-0,8545182653279214
18:54:32.279;0;Mov;1;1309;9,98;0;0;0;-0,31582994490455335;0,2667806203173162;-0,08135014183954131;-0,09155552842799158;-1,9837031159398175;-0,7629627368999298
18:54:32.279;0;Mov;1;1310;9,98;0;0;0;-0,2249092104146321;0,22371287888252664;-0,056227302603658026;-0,15259254737998595;-2,075258644367809;-0,7019257179479355
18:54:32.301;0;Wrist;1;1281;10,08;0,6950651927816095;0,7907712384983367;0;0,7907712384983367;0,6950651927816095;0,24524674214911343;0;-0,15259254737998595;0,8239997558519242
18:54:32.301;0;Wrist;1;1282;10,08;0,7118137150181585;0,7943602032914212;0;0,7943602032914212;0,7118137150181585;0,22251656225203711;0,4272591326639607;0,09155552842799158;0,9765923032319102
18:54:32.301;0;Wrist;1;1283;10,08;0,764452064004944;0,8290536090998566;0;0,8290536090998566;0,764452064004944;0,20576799531064027;0,793481246375927;0,21362956633198035;0,9765923032319102
18:54:32.301;0;Wrist;1;1284;10,08;0,7776116214484085;0,8828882598155157;0;0,8828882598155157;0,7776116214484085;0,24165777735602892;0,9460737937559129;0,4882961516159551;0,9155552842799157
18:54:32.301;0;Wrist;1;1285;10,08;0,8158940516563921;0,8314462721640675;0;0,8314462721640675;0,8158940516563921;0,25362103307061984;0,9765923032319102;0,7629627368999298;0,7629627368999298
18:54:32.330;0;Wrist;1;1286;9,87;0,7034394240966522;0,8015381328775902;0;0,8015381328775902;0,7034394240966522;0,25720999786370435;0,9460737937559129;1,1597033600878932;0,8239997558519242
18:54:32.330;0;Wrist;1;1287;9,87;0,7369365877826777;0,7596667378765221;0;0,7596667378765221;0,7369365877826777;0,2524247015385144;1,0376293221839046;1,3733329264198737;0,8850367748039186
18:54:32.330;0;Wrist;1;1288;9,87;0,7429182156399732;0,7512924469550157;0;0,7512924469550157;0,7429182156399732;0,22969452164143803;1,0681478316599018;1,3733329264198737;0,7019257179479355
18:54:32.330;0;Wrist;1;1289;9,87;0,717795342875454;0,7225806690038759;0;0,7225806690038759;0,717795342875454;0,239265114291818;0,9460737937559129;1,3122959074678793;0,5493331705679495
18:54:32.330;0;Wrist;1;1290;9,87;0,7154026798112431;0,7333475633831293;0;0,7333475633831293;0,7154026798112431;0,24165777735602892;0,09155552842799158;0,9765923032319102;0,36622211371196634
18:54:32.337;0;Mov;1;1311;10,07;0;0;0;-0,22371287888252664;0,21055330653744622;-0,025122837373181287;-0,12207403790398877;-1,9837031159398175;-0,5188146610919523
18:54:32.337;0;Mov;1;1312;10,07;0;0;0;-0,2715659166425062;0,3349711600085452;-0,0346934430624752;-0,12207403790398877;-1,7090365306558428;-0,5188146610919523
18:54:32.338;0;Mov;1;1313;10,07;0;0;0;-0,2751548814355907;0,28472550388920254;-0,0478530228583636;-0,3357036042359691;-1,281777397991882;-0,6714072084719382
18:54:32.338;0;Mov;1;1314;10,07;0;0;0;-0,290707131746498;0,25720999786370435;-0,04426404688906713;-0,4882961516159551;-1,2207403790398876;-0,9155552842799157
18:54:32.338;0;Mov;1;1315;10,07;0;0;0;-0,3098483170472579;0,25720999786370435;-0,05742363041035951;-0,4272591326639607;-1,098666341135899;-0,9460737937559129
18:54:32.393;0;Wrist;1;1291;10;0,7297585985900449;0,7608630992118595;0;0,7608630992118595;0,7297585985900449;0,2512283700064089;-1,7700735496078372;0,36622211371196634;0,09155552842799158
18:54:32.393;0;Wrist;1;1292;10;0,7297585985900449;0,7130100763534959;0;0,7130100763534959;0,7297585985900449;0,2584063293958098;-3,1434064760277107;-0,12207403790398877;0,09155552842799158
18:54:32.393;0;Wrist;1;1293;10;0,6950651927816095;0,708224750225074;0;0,708224750225074;0,6950651927816095;0,2524247015385144;-4,638813440351573;-0,27466658528397475;-0,030518509475997192
18:54:32.393;0;Wrist;1;1294;10;0,6783166109385967;0,7405255525757622;0;0,7405255525757622;0,6783166109385967;0,2548173646027253;-5,554368724631489;-0,5798516800439466;0
18:54:32.394;0;Wrist;1;1295;10;0,6747276461455123;0,7500961452261422;0;0,7500961452261422;0,6747276461455123;0,26438795725310527;-5,951109347819452;-0,6103701895199438;0,061037018951994385
18:54:32.398;0;Mov;1;1316;10,18;0;0;0;-0,31104464857936337;0,1890194432708594;-0,031104465230476736;-0,3357036042359691;-1,1291848506118962;-0,9460737937559129
18:54:32.399;0;Mov;1;1317;10,18;0;0;0;-0,33736382307275614;0,20337534714804528;-0,03947874311306917;-0,21362956633198035;-1,1902218695638904;-0,793481246375927
18:54:32.399;0;Mov;1;1318;10,18;0;0;0;-0,33018586368335523;0,2548173646027253;-0,04546037097036462;-0,09155552842799158;-1,2512588885158848;-0,4882961516159551
18:54:32.399;0;Mov;1;1319;10,18;0;0;0;-0,3086520153183844;0,2596026609279153;-0,0478530228583636;-0,09155552842799158;-1,4648884548478653;-0,45777764213995786
18:54:32.399;0;Mov;1;1320;10,18;0;0;0;-0,3050630207220679;0,27276224817461164;-0,02990813928647725;-0,061037018951994385;-1,6479995117038484;-0,27466658528397475
18:54:32.428;0;Mov;1;1321;9,97;0;0;0;-0,3146336431756798;0,27276224817461164;-0,05742363041035951;-0,061037018951994385;-1,7700735496078372;-0,21362956633198035
18:54:32.428;0;Mov;1;1322;9,97;0;0;0;-0,3014740559289834;0,2476394052133244;-0,05383465071565905;-0,15259254737998595;-1,7700735496078372;-0,45777764213995786
18:54:32.428;0;Mov;1;1323;9,97;0;0;0;-0,297885061332667;0,22610554194673757;-0,03708609495047418;-0,18311105685598317;-1,7090365306558428;-0,5493331705679495
18:54:32.428;0;Mov;1;1324;9,97;0;0;0;-0,34095278786584066;0,2560136663315989;-0,06460158234895245;-0,12207403790398877;-1,7700735496078372;-0,5798516800439466
18:54:32.428;0;Mov;1;1325;9,97;0;0;0;-0,29190343347537157;0,2679769220461898;-0,0466566987770661;-0,18311105685598317;-1,7090365306558428;-0,45777764213995786
18:54:32.454;0;Wrist;1;1296;10,1;0,651997436445204;0,7357402264473403;0;0,7357402264473403;0,651997436445204;0,2715659166425062;-6,561479537339396;-0,6103701895199438;0,061037018951994385
18:54:32.454;0;Wrist;1;1297;10,1;0,654390099509415;0,7225806690038759;0;0,7225806690038759;0,654390099509415;0,3086520153183844;-9,186071352275155;-1,098666341135899;-0,4272591326639607
18:54:32.455;0;Wrist;1;1298;10,1;0,7608630992118595;0,7500961452261422;0;0,7500961452261422;0,7608630992118595;0,2775475444998016;-13,611255226294748;-1,5259254737998595;-1,4343699453718681
18:54:32.455;0;Wrist;1;1299;10,1;0,7955565050202948;0,6771203092097232;0;0,6771203092097232;0,7955565050202948;0,3026703874610889;-16,388439588610492;-1,73955504013184;-2,410962248603778
18:54:32.455;0;Wrist;1;1300;10,1;0,8493911557359538;0,6388378790017396;0;0,6388378790017396;0,8493911557359538;0,2273018585772271;-15,655995361186559;-1,281777397991882;-3,326517532883694
18:54:32.511;0;Wrist;1;1301;10,16;0,5646656816499832;0,6232856584940641;0;0,6232856584940641;0,5646656816499832;0,2667806203173162;-13,031403546250802;-0,5493331705679495;-2,8992584002197335
18:54:32.512;0;Wrist;1;1302;10,16;0,6783166109385967;0,7165990411465804;0;0,7165990411465804;0,6783166109385967;0,25362103307061984;-9,704886013367107;-0,12207403790398877;-2,0142216254158147
18:54:32.512;0;Wrist;1;1303;10,16;0,6053407749221777;0,7345439247184667;0;0,7345439247184667;0,6053407749221777;0,2524247015385144;-6,897183141575366;0,27466658528397475;-1,2512588885158848
18:54:32.512;0;Wrist;1;1304;10,16;0,6089297397152623;0,7548814713545641;0;0,7548814713545641;0,6089297397152623;0,2560136663315989;-4,8829615161595505;0,6714072084719382;-0,7019257179479355
18:54:32.512;0;Wrist;1;1305;10,16;0,6878872035889767;0,7943602032914212;0;0,7943602032914212;0,6878872035889767;0,2512283700064089;-3,448591570787683;0,6714072084719382;-0,09155552842799158
18:54:32.540;0;Wrist;1;1306;9,98;0,7584704361476485;0,8362315982924894;0;0,8362315982924894;0,7584704361476485;0,2440504255186239;-2,4414807580797753;0,7019257179479355;0,3357036042359691
18:54:32.540;0;Wrist;1;1307;9,98;0,7154026798112431;0,7357402264473403;0;0,7357402264473403;0,7154026798112431;0,20816065837485123;-2,1362956633198036;0,6714072084719382;0,5493331705679495
18:54:32.540;0;Wrist;1;1308;9,98;0,6783166109385967;0,7752189583841975;0;0,7752189583841975;0,6783166109385967;0,239265114291818;-2,0142216254158147;0,8239997558519242;0,640888698995941
18:54:32.540;0;Wrist;1;1309;9,98;0,6603717273667105;0,7823969475768303;0;0,7823969475768303;0,6603717273667105;0,2129459547000412;-1,6785180211798456;0,5188146610919523;0,7324442274239327
18:54:32.540;0;Wrist;1;1310;9,98;0,5909848561433759;0,7034394240966522;0;0,7034394240966522;0,5909848561433759;0,234479817966628;-1,403851435895871;0,6103701895199438;0,7629627368999298
18:54:32.547;0;Mov;1;1326;10,6;0;0;0;-0,30745568378627885;0,26558428878521073;-0,06460158234895245;-0,18311105685598317;-1,6479995117038484;-0,4882961516159551
18:54:32.547;0;Mov;1;1327;10,6;0;0;0;-0,3289895321512497;0,2751548814355907;-0,03230079117447623;-0,24414807580797754;-1,586962492751854;-0,640888698995941
18:54:32.547;0;Mov;1;1328;10,6;0;0;0;-0,31224098011146884;0,23806879766132846;-0,03947874311306917;-0,3967406231879635;-1,403851435895871;-0,3967406231879635
18:54:32.547;0;Mov;1;1329;10,6;0;0;0;-0,33018586368335523;0,2440504255186239;-0,026319163317180778;-0,6103701895199438;-1,2512588885158848;-0,061037018951994385
18:54:32.547;0;Mov;1;1330;10,6;0;0;0;-0,34932707878734703;0,29549242807168796;-0,05742363041035951;-0,640888698995941;-1,3122959074678793;-0,061037018951994385
18:54:32.549;0;Mov;1;1331;10,16;0;0;0;-0,354112375112537;0,2273018585772271;-0,0478530228583636;-0,5798516800439466;-1,3428144169438765;-0,6103701895199438
18:54:32.549;0;Mov;1;1332;10,16;0;0;0;-0,3612903345019379;0,2524247015385144;-0,0466566987770661;-0,5493331705679495;-1,403851435895871;-0,9765923032319102
18:54:32.549;0;Mov;1;1333;10,16;0;0;0;-0,32779320061914424;0,2129459547000412;-0,05742363041035951;-0,640888698995941;-1,5564439832758568;-1,0071108127079074
18:54:32.549;0;Mov;1;1334;10,16;0;0;0;-0,3289895321512497;0,20337534714804528;-0,028711815205179753;-0,3967406231879635;-1,73955504013184;-1,1597033600878932
18:54:32.549;0;Mov;1;1335;10,16;0;0;0;-0,3313821952154607;0,20457167868015075;-0,04904935066506508;-0,27466658528397475;-1,6785180211798456;-1,281777397991882
18:54:32.579;0;Mov;1;1336;9,99;0;0;0;-0,30745568378627885;0,26199529418889433;-0,052638326634361556;-0,15259254737998595;-1,6479995117038484;-1,4343699453718681
18:54:32.579;0;Mov;1;1337;9,99;0;0;0;-0,2560136663315989;0,3182226079687643;-0,05503097852236053;-0,18311105685598317;-1,5259254737998595;-1,5259254737998595
18:54:32.579;0;Mov;1;1338;9,99;0;0;0;-0,21174962316793572;0,24524674214911343;-0,03947874311306917;-0,3051850947599719;-1,5259254737998595;-1,6174810022278512
18:54:32.579;0;Mov;1;1339;9,99;0;0;0;-0,2942960965395825;0,2129459547000412;-0,06220893046095347;-0,27466658528397475;-1,3428144169438765;-1,73955504013184
18:54:32.580;0;Mov;1;1340;9,99;0;0;0;-0,32300790429395426;0,20457167868015075;-0,06699423051154745;-0,27466658528397475;-1,2207403790398876;-1,7090365306558428
18:54:32.601;0;Wrist;1;1311;10,06;0,5706473095072787;0,7465071804330576;0;0,7465071804330576;0,5706473095072787;0,2512283700064089;-0,6103701895199438;0,6714072084719382;0,8545182653279214
18:54:32.601;0;Wrist;1;1312;10,06;0,6077333783799249;0,8027344942129276;0;0,8027344942129276;0,6077333783799249;0,28352917235709707;-0,12207403790398877;0,8850367748039186;0,8545182653279214
18:54:32.601;0;Wrist;1;1313;10,06;0,7381328895115512;0,8266610056421094;0;0,8266610056421094;0,7381328895115512;0,2560136663315989;-0,24414807580797754;1,1902218695638904;1,098666341135899
18:54:32.601;0;Wrist;1;1314;10,06;0,7441145173688467;0,6986541575746941;0;0,6986541575746941;0,7441145173688467;0,17466353939367352;-0,7019257179479355;1,2512588885158848;1,2207403790398876
18:54:32.601;0;Wrist;1;1315;10,06;0,6196966340945158;0,7453108190977202;0;0,7453108190977202;0,6196966340945158;0,21174962316793572;-0,793481246375927;1,0071108127079074;1,0681478316599018
18:54:32.630;0;Wrist;1;1316;9,9;0,6185003323656423;0,7919675402272103;0;0,7919675402272103;0,6185003323656423;0,23208716980403302;-0,21362956633198035;1,0071108127079074;0,9765923032319102
18:54:32.631;0;Wrist;1;1317;9,9;0,7058320871608631;0,8458021909428693;0;0,8458021909428693;0,7058320871608631;0,2703695851104007;0,21362956633198035;0,9155552842799157;1,1597033600878932
18:54:32.631;0;Wrist;1;1318;9,9;0,6938688314462722;0,7632557026696066;0;0,7632557026696066;0,6938688314462722;0,26917325357829525;0,09155552842799158;0,7629627368999298;0,9765923032319102
18:54:32.631;0;Wrist;1;1319;9,9;0,6232856584940641;0,6077333783799249;0;0,6077333783799249;0,6232856584940641;0,25720999786370435;0,18311105685598317;0,7019257179479355;0,5188146610919523
18:54:32.631;0;Wrist;1;1320;9,9;0,6376415176664022;0,6304635880802332;0;0,6304635880802332;0,6376415176664022;0,3696645956202124;0,27466658528397475;0,3967406231879635;0,030518509475997192
18:54:32.638;0;Mov;1;1341;10,06;0;0;0;-0,2440504255186239;0,2009826989854503;-0,0705832102062479;-0,15259254737998595;-1,1597033600878932;-1,6174810022278512
18:54:32.639;0;Mov;1;1342;10,06;0;0;0;-0,3170262764366588;0,16389660030957212;-0,07776116214484084;-0,061037018951994385;-1,0071108127079074;-1,281777397991882
18:54:32.639;0;Mov;1;1343;10,06;0;0;0;-0,31582994490455335;0,16509293184167761;-0,06460158234895245;0,18311105685598317;-1,098666341135899;-1,0071108127079074
18:54:32.639;0;Mov;1;1344;10,06;0;0;0;-0,3385601546048616;0,1818414838814585;-0,056227302603658026;0,5798516800439466;-1,1291848506118962;-0,8239997558519242
18:54:32.639;0;Mov;1;1345;10,06;0;0;0;-0,3134373116435743;0,1818414838814585;-0,0346934430624752;0,793481246375927;-0,9460737937559129;-0,7324442274239327
18:54:32.668;0;Mov;1;1346;9,9;0;0;0;-0,32779320061914424;0,19739371929074984;-0,03708609495047418;1,0071108127079074;-0,8545182653279214;-0,6103701895199438
18:54:32.668;0;Mov;1;1347;9,9;0;0;0;-0,3182226079687643;0,23806879766132846;-0,038282419031771674;1,281777397991882;-0,793481246375927;-0,45777764213995786
18:54:32.668;0;Mov;1;1348;9,9;0;0;0;-0,2895108002143925;0,24165777735602892;-0,028711815205179753;1,3428144169438765;-0,7019257179479355;-0,4272591326639607
18:54:32.668;0;Mov;1;1349;9,9;0;0;0;-0,3289895321512497;0,2129459547000412;-0,052638326634361556;1,281777397991882;-0,4882961516159551;-0,15259254737998595
18:54:32.669;0;Mov;1;1350;9,9;0;0;0;-0,34813074725524157;0,26558428878521073;-0,06819056204365291;1,3733329264198737;-0,3357036042359691;-0,030518509475997192
18:54:32.691;0;Wrist;1;1321;9,99;0,7488998434972686;0,5299722162350841;0;0,5299722162350841;0,7488998434972686;0,2775475444998016;0,8239997558519242;0,4272591326639607;-1,2512588885158848
18:54:32.692;0;Wrist;1;1322;9,99;0,6962614945104831;0,7333475633831293;0;0,7333475633831293;0,6962614945104831;0,22132023071993165;1,6174810022278512;0,640888698995941;-1,8616290780358287
18:54:32.692;0;Wrist;1;1323;9,99;0,6687460182882168;0,727365935525834;0;0,727365935525834;0,6687460182882168;0,2631916257209998;1,8921475875118259;0,27466658528397475;-1,5259254737998595
18:54:32.692;0;Wrist;1;1324;9,99;0,7512924469550157;0,7728263549264504;0;0,7728263549264504;0,7512924469550157;0,25720999786370435;1,922666096987823;0,3051850947599719;-1,1597033600878932
18:54:32.692;0;Wrist;1;1325;9,99;0,7189917042107914;0,8613544114505448;0;0,8613544114505448;0,7189917042107914;0,2249092104146321;2,166814172795801;0,4272591326639607;-0,8239997558519242
18:54:32.728;0;Mov;1;1351;9,98;0;0;0;-0,31582994490455335;0,19739371929074984;-0,038282419031771674;1,281777397991882;-0,3967406231879635;-0,030518509475997192
18:54:32.728;0;Mov;1;1352;9,98;0;0;0;-0,3289895321512497;0,21892758255733666;-0,014355907602589877;1,403851435895871;-0,4882961516159551;0
18:54:32.728;0;Mov;1;1353;9,98;0;0;0;-0,3361674915406507;0,2153386028626362;-0,026319163317180778;1,73955504013184;-0,12207403790398877;0,24414807580797754
18:54:32.728;0;Mov;1;1354;9,98;0;0;0;-0,363682967762917;0,18782311173875393;-0,052638326634361556;2,2278511917477952;0,3967406231879635;0,4272591326639607
18:54:32.728;0;Mov;1;1355;9,98;0;0;0;-0,3433454509300516;0,1890194432708594;-0,0358897671437727;2,380443739127781;0,5188146610919523;0,3357036042359691
18:54:32.752;0;Wrist;1;1326;10,06;0,6328562511444441;0,7189917042107914;0;0,7189917042107914;0,6328562511444441;0,27635121296769616;2,563554795983764;0,27466658528397475;-0,6103701895199438
18:54:32.752;0;Wrist;1;1327;10,06;0,5802179021576587;0,5897884948080385;0;0,5897884948080385;0,5802179021576587;0,25003203847430344;3,7537766655476545;-0,12207403790398877;-0,9155552842799157
18:54:32.752;0;Wrist;1;1328;10,06;0,6376415176664022;0,7249733320680868;0;0,7249733320680868;0,6376415176664022;0,20935697500534073;4,852443006683553;-0,21362956633198035;-0,8239997558519242
18:54:32.752;0;Wrist;1;1329;10,06;0,5527024259353923;0,6986541575746941;0;0,6986541575746941;0,5527024259353923;0,28113650929288614;5,3102206488235115;-0,5493331705679495;-0,4272591326639607
18:54:32.752;0;Wrist;1;1330;10,06;0,595770122665334;0,6531937977805414;0;0,6531937977805414;0,595770122665334;0,1866267951082644;6,256294442579424;-0,793481246375927;-0,4272591326639607
18:54:32.780;0;Wrist;1;1331;9,91;0,6878872035889767;0,8828882598155157;0;0,8828882598155157;0,6878872035889767;0,15552232428968168;6,2868129520554215;-0,9155552842799157;-0,21362956633198035
18:54:32.781;0;Wrist;1;1332;9,91;0,6496047733809931;0,8529801205290384;0;0,8529801205290384;0,6496047733809931;0,2009826989854503;5,890072328867458;-1,098666341135899;0,12207403790398877
18:54:32.781;0;Wrist;1;1333;9,91;0,6627643904309214;0,6998504593035676;0;0,6998504593035676;0,6627643904309214;0,18782311173875393;5,340739158299509;-1,3428144169438765;0,5493331705679495
18:54:32.781;0;Wrist;1;1334;9,91;0,6950651927816095;0,6783166109385967;0;0,6783166109385967;0,6950651927816095;0,19978636745334483;4,852443006683553;-1,586962492751854;0,5188146610919523
18:54:32.781;0;Wrist;1;1335;9,91;0,7022431223677785;0,6663533552240058;0;0,6663533552240058;0,7022431223677785;0,19978636745334483;4,638813440351573;-1,8005920590838342;0,27466658528397475
18:54:32.841;0;Wrist;1;1336;9,99;0,6890835649243141;0,5933775192075869;0;0,5933775192075869;0,6890835649243141;0,21773125102523117;4,699850459303567;-1,9837031159398175;0,3051850947599719
18:54:32.842;0;Wrist;1;1337;9,99;0,6962614945104831;0,6783166109385967;0;0,6783166109385967;0,6962614945104831;0,2524247015385144;4,8829615161595505;-1,922666096987823;0,18311105685598317
18:54:32.842;0;Wrist;1;1338;9,99;0,7261696337969603;0,7225806690038759;0;0,7225806690038759;0,7261696337969603;0,22132023071993165;4,913480025635548;-1,9837031159398175;0,15259254737998595
18:54:32.842;0;Wrist;1;1339;9,99;0,6268746232871486;0,6591754256378368;0;0,6591754256378368;0,6268746232871486;0,1674855800042726;4,577776421399578;-2,2583697012237924;0,18311105685598317
18:54:32.842;0;Wrist;1;1340;9,99;0,525186949713126;0,7967528663556321;0;0,7967528663556321;0,525186949713126;0,25003203847430344;4,364146855067599;-2,533036286507767;0,4272591326639607
18:54:32.847;0;Mov;1;1356;10,47;0;0;0;-0,358897671437727;0,22251656225203711;-0,02990813928647725;2,6551103244117558;0,8545182653279214;0,36622211371196634
18:54:32.847;0;Mov;1;1357;10,47;0;0;0;-0,3421491193979461;0,15911130398438214;-0,031104465230476736;2,807702871791742;1,3428144169438765;0,27466658528397475
18:54:32.847;0;Mov;1;1358;10,47;0;0;0;-0,34095278786584066;0,16987822816686757;-0,02990813928647725;3,2654805139316996;1,7090365306558428;0,45777764213995786
18:54:32.847;0;Mov;1;1359;10,47;0;0;0;-0,3337748284764397;0,19260842296555986;-0,0358897671437727;3,845332193975646;2,380443739127781;0,640888698995941
18:54:32.847;0;Mov;1;1360;10,47;0;0;0;-0,3361674915406507;0,15193334459498123;-0,07895748622613834;4,058961760307627;2,9297769096957307;0,793481246375927
18:54:32.849;0;Mov;1;1361;10,13;0;0;0;-0,34095278786584066;0,117239908983314;-0,07297585836884289;4,058961760307627;2,6551103244117558;1,2207403790398876
18:54:32.849;0;Mov;1;1362;10,13;0;0;0;-0,32540056735816525;0,19260842296555986;-0,06819056204365291;4,272591326639607;2,2278511917477952;1,3733329264198737
18:54:32.849;0;Mov;1;1363;10,13;0;0;0;-0,33018586368335523;0,14954069643238624;-0,08015381775824382;4,150517288735618;1,7090365306558428;1,403851435895871
18:54:32.849;0;Mov;1;1364;10,13;0;0;0;-0,3349711600085452;0,290707131746498;-0,05383465071565905;4,150517288735618;1,281777397991882;1,5259254737998595
18:54:32.849;0;Mov;1;1365;10,13;0;0;0;-0,3289895321512497;0,26917325357829525;-0,06579790643024995;3,8758507034516434;1,098666341135899;1,403851435895871
18:54:32.877;0;Mov;1;1366;9,98;0;0;0;-0,3014740559289834;0,2129459547000412;-0,06220893046095347;3,295999023407697;0,9460737937559129;1,2207403790398876
18:54:32.877;0;Mov;1;1367;9,98;0;0;0;-0,2823328408249916;0,17227089123107853;-0,06220893046095347;3,295999023407697;0,8239997558519242;1,1902218695638904
18:54:32.877;0;Mov;1;1368;9,98;0;0;0;-0,2751548814355907;0,19500107112815485;-0,040675070919770656;3,357036042359691;0,6714072084719382;1,1597033600878932
18:54:32.877;0;Mov;1;1369;9,98;0;0;0;-0,30027772439687794;0,14834437980189671;-0,0239265114291818;3,7842951750236518;1,1291848506118962;1,3733329264198737
18:54:32.878;0;Mov;1;1370;9,98;0;0;0;-0,25362103307061984;0,10408032918742562;-0,0478530228583636;4,058961760307627;1,5564439832758568;1,586962492751854
18:54:32.908;0;Mov;1;1371;9,85;0;0;0;-0,22371287888252664;0,13039949623001038;-0,0346934430624752;4,211554307687613;1,6479995117038484;1,922666096987823
18:54:32.908;0;Mov;1;1372;9,85;0;0;0;-0,22012391408944212;0,07656483806354335;0,0239265114291818;4,272591326639607;2,166814172795801;2,3499252296517836
18:54:32.908;0;Mov;1;1373;9,85;0;0;0;-0,18782311173875393;0,05144199882766007;0,06819056204365291;5,005035554063539;3,936887722403638;3,021332438123722
18:54:32.908;0;Mov;1;1374;9,85;0;0;0;-0,0933133975541322;-0,0023926511894857296;0,08015381775824382;6,347849971007416;6,591998046815394;4,058961760307627
18:54:32.908;0;Mov;1;1375;9,85;0;0;0;0,0466566987770661;-0,0011963255947428648;0,11604358490201651;7,110812707907346;9,216589861751151;5,493331705679495
18:54:32.930;0;Wrist;1;1341;10,24;0,6005554487937559;0,7871822140987884;0;0,7871822140987884;0,6005554487937559;0,18423414694566942;4,7303689687795645;-2,6551103244117558;0,5188146610919523
18:54:32.931;0;Wrist;1;1342;10,24;0,6017517505226295;0,7249733320680868;0;0,7249733320680868;0,6017517505226295;0,15671865582178715;4,547257911923582;-2,685628833887753;0,8239997558519242
18:54:32.931;0;Wrist;1;1343;10,24;0,5550950889996032;0,7500961452261422;0;0,7500961452261422;0,5550950889996032;0,18543046357615894;4,119998779259621;-2,7466658528397474;1,0681478316599018
18:54:32.931;0;Wrist;1;1344;10,24;0,6723349830813014;0,7393291912404248;0;0,7393291912404248;0,6723349830813014;0,10527665326872311;3,845332193975646;-2,8992584002197335;1,3428144169438765
18:54:32.931;0;Wrist;1;1345;10,24;0,7142063780823694;0,835035236957152;0;0,835035236957152;0,7142063780823694;0,0945097216354297;2,7466658528397474;-2,7771843623157446;1,4954069643238623
18:54:32.933;0;Wrist;1;1346;9,94;0,6388378790017396;0,7788079827837459;0;0,7788079827837459;0,6388378790017396;0,07656483806354335;1,6785180211798456;-2,838221381267739;1,4343699453718681
18:54:32.933;0;Wrist;1;1347;9,94;0,6711386813524277;0,8123050868633076;0;0,8123050868633076;0,6711386813524277;0,04546037097036462;0,8239997558519242;-2,9908139286477247;1,403851435895871
18:54:32.933;0;Wrist;1;1348;9,94;0,6508011347163305;0,8505875170712912;0;0,8505875170712912;0,6508011347163305;0,09929502541142765;-0,45777764213995786;-3,357036042359691;1,5564439832758568
18:54:32.933;0;Wrist;1;1349;9,94;0,5503097628711814;0,769237330526902;0;0,769237330526902;0,5503097628711814;0,0933133975541322;-1,403851435895871;-3,845332193975646;1,4648884548478653
18:54:32.933;0;Wrist;1;1350;9,94;0,7716299935911131;1,015680434011353;0;1,015680434011353;0,7716299935911131;0,015552232615238368;-2,4414807580797753;-4,1810357982116155;1,9837031159398175
18:54:32.968;0;Mov;1;1376;9,92;0;0;0;0,12202521275931195;0,11006195704472106;0,23806879766132846;7,17184972685934;12,604144413586841;6,775109103671377
18:54:32.968;0;Mov;1;1377;9,92;0;0;0;0,1339884610230949;0,02990813928647725;0,3505234103194525;7,477034821619312;17,853328043458358;8,423108615375225
18:54:32.968;0;Mov;1;1378;9,92;0;0;0;0,15193334459498123;-0,15193334459498123;0,4845118564409314;8,758812219611194;25,269325846125675;10,681478316599017
18:54:32.968;0;Mov;1;1379;9,92;0;0;0,6364452159375286;0,11006195704472106;-0,4306772057252724;0,6364452159375286;10,895107882930997;34,211249122592854;13,550218207342754
18:54:32.968;0;Mov;1;1380;9,92;0;0;0,8996368416585284;0,07656483806354335;-0,45938904328287605;0,8996368416585284;14,191106906338694;44,5265053254799;17,15140232551042
18:54:33.025;0;Wrist;1;1351;10,2;0,6890835649243141;0,9486862258522294;0;0,9486862258522294;0,6890835649243141;0,17227089123107853;-4,364146855067599;-4,852443006683553;2,2278511917477952
18:54:33.026;0;Wrist;1;1352;10,2;0,5861995300149541;0,708224750225074;0;0,708224750225074;0,5861995300149541;0,15911130398438214;-4,8829615161595505;-5,035554063539537;2,533036286507767
18:54:33.026;0;Wrist;1;1353;10,2;0,7333475633831293;0,9773980038033693;0;0,9773980038033693;0,7333475633831293;0,15552232428968168;-4,913480025635548;-4,486220892971588;2,6551103244117558
18:54:33.026;0;Wrist;1;1354;10,2;0,6280709250160222;0,9642384463599047;0;0,9642384463599047;0,6280709250160222;0,30027772439687794;-5,096591082491531;-4,058961760307627;2,410962248603778
18:54:33.026;0;Wrist;1;1355;10,2;0,5730399725714896;0,6962614945104831;0;0,6962614945104831;0,5730399725714896;0,3146336431756798;-4,516739402447585;-3,4180730613116856;2,0142216254158147
18:54:33.031;0;Mov;1;1381;10;-0,6388378790017396;0;1,1281350615710928;-0,3349711600085452;-0,6388378790017396;1,1281350615710928;19,379253517258217;58,839686269722584;21,546067690054016
18:54:33.031;0;Mov;1;1382;10;-0,727365935525834;0;1,416449500450148;-0,410339688892407;-0,727365935525834;1,416449500450148;26,062807092501604;75,83849604785303;27,741325113681448
18:54:33.031;0;Mov;1;1383;10;-0,8027344942129276;0;1,690408080156865;-0,29190343347537157;-0,8027344942129276;1,690408080156865;33,20413830988495;94,69893490401928;34,45539719840083
18:54:33.031;0;Mov;1;1384;10;-0,6304635880802332;-0,5132236939985351;1,777739775345622;-0,5132236939985351;-0,6304635880802332;1,777739775345622;39,1552476577044;114,71907712027344;39,826654866176334
18:54:33.031;0;Mov;1;1385;10;-1,0001281538972138;-0,6113224027794733;2,2849818414868617;-0,6113224027794733;-1,0001281538972138;2,2849818414868617;41,2915433210242;136,29566331980345;45,89983825189978
18:54:33.075;0;Mov;1;1386;9,97;-1,6736594983138524;0;2,4309335135196997;-0,1507370279644917;-1,6736594983138524;2,4309335135196997;45,625171666615806;156,4073610644856;55,60472426526688
18:54:33.075;0;Mov;1;1387;9,97;-1,4008972203360088;0;2,602008117923521;-0,3313821952154607;-1,4008972203360088;2,602008117923521;45,86931974242378;170,6289864803003;61,76946317941832
18:54:33.075;0;Mov;1;1388;9,97;-1,777739775345622;-0,8469984926717429;3,39158299508652;-0,8469984926717429;-1,777739775345622;3,39158299508652;42,93954283272805;179,3572801904355;68,36146122623371
18:54:33.075;0;Mov;1;1389;9,97;-2,0839990977965637;-0,7512924469550157;4,536466757713553;-0,7512924469550157;-2,0839990977965637;4,536466757713553;43,885616626483966;177,64824365977967;73,67168187505722
18:54:33.075;0;Mov;1;1390;9,97;-2,476393932920316;0;4,985088847010712;-0,26438795725310527;-2,476393932920316;4,985088847010712;48,890652180547505;159,64232306894132;74,34308908352916
18:54:33.082;0;Wrist;1;1356;10,23;0,527579612777337;0,6663533552240058;0;0,6663533552240058;0,527579612777337;0,29190343347537157;-3,4180730613116856;-2,380443739127781;1,9531846064638203
18:54:33.082;0;Wrist;1;1357;10,23;0,6783166109385967;0,7883785754341258;0;0,7883785754341258;0,6783166109385967;0,39957273490668965;-2,197332682271798;-1,8311105685598315;1,3733329264198737
18:54:33.082;0;Wrist;1;1358;10,23;0,6950651927816095;0,6185003323656423;0;0,6185003323656423;0,6950651927816095;0,21653493439474167;-1,1291848506118962;-1,403851435895871;0,18311105685598317
18:54:33.082;0;Wrist;1;1359;10,23;0,820679377784814;0,7955565050202948;0;0,7955565050202948;0,820679377784814;0,18782311173875393;-0,793481246375927;-1,0681478316599018;-0,27466658528397475
18:54:33.083;0;Wrist;1;1360;10,23;0,7560777730834376;0,8039307959418012;0;0,8039307959418012;0,7560777730834376;0,26558428878521073;-1,1902218695638904;-1,0376293221839046;-1,0681478316599018
18:54:33.083;0;Wrist;1;1361;9,94;0,5754326356357006;0,5969664840006714;0;0,5969664840006714;0,5754326356357006;0,24046144582392345;-1,0071108127079074;-0,9155552842799157;-1,9531846064638203
18:54:33.083;0;Wrist;1;1362;9,94;0,7465071804330576;0,6866909018601032;0;0,6866909018601032;0,7465071804330576;0,25362103307061984;-0,5188146610919523;-0,9765923032319102;-2,6245918149357585
18:54:33.083;0;Wrist;1;1363;9,94;0,6902798666531876;0,6747276461455123;0;0,6747276461455123;0,6902798666531876;0,2560136663315989;-0,640888698995941;-0,8239997558519242;-3,3875545518356884
18:54:33.084;0;Wrist;1;1364;9,94;0,7429182156399732;0,6591754256378368;0;0,6591754256378368;0,7429182156399732;0,19978636745334483;-0,5798516800439466;-0,9155552842799157;-4,1810357982116155
18:54:33.084;0;Wrist;1;1365;9,94;0,6986541575746941;0,8685324006431776;0;0,8685324006431776;0,6986541575746941;0,26558428878521073;-0,45777764213995786;-0,8850367748039186;-5,249183629871517
18:54:33.118;0;Mov;1;1391;9,93;-2,5098910966063417;0,6029481118579668;4,67643656346324;0,6029481118579668;-2,5098910966063417;4,67643656346324;43,671987060151984;134,58662678914763;69,97894222846156
18:54:33.118;0;Mov;1;1392;9,93;-4,312753685110019;3,1068574613940854;5,299722281563769;3,1068574613940854;-4,312753685110019;5,299722281563769;24,628437147129734;109,07315286721396;62,013611255226294
18:54:33.118;0;Mov;1;1393;9,93;-6,833411854915006;5,507882835627308;4,22542210913419;5,507882835627308;-6,833411854915006;4,22542210913419;22,980437635425886;83,71227149266029;50,38605914487137
18:54:33.118;0;Mov;1;1394;9,93;-7,569152081362346;6,912369438001648;3,0697715117343667;6,912369438001648;-7,569152081362346;3,0697715117343667;18,25006866664632;61,89153721732231;24,719992675557727
18:54:33.118;0;Mov;1;1395;9,93;-7,559581667531358;7,451912366100039;1,9990601252784814;7,451912366100039;-7,559581667531358;1,9990601252784814;12,146366771446882;50,66072573015534;-5,798516800439467
18:54:33.170;0;Wrist;1;1366;10,15;0,581414263492996;0,7788079827837459;0;0,7788079827837459;0,581414263492996;0,28113650929288614;-0,24414807580797754;-0,640888698995941;-6,103701895199438
18:54:33.170;0;Wrist;1;1367;10,15;0,7823969475768303;0,7656483657338176;0;0,7656483657338176;0,7823969475768303;0,234479817966628;0,030518509475997192;-0,09155552842799158;-6,591998046815394
18:54:33.170;0;Wrist;1;1368;10,15;0,7058320871608631;0,7955565050202948;0;0,7955565050202948;0,7058320871608631;0,2476394052133244;-0,030518509475997192;0,640888698995941;-7,538071840571306
18:54:33.171;0;Wrist;1;1369;10,15;0,7034394240966522;0,7369365877826777;0;0,7369365877826777;0,7034394240966522;0,25003203847430344;-0,4272591326639607;1,7090365306558428;-7,904293954283273
18:54:33.171;0;Wrist;1;1370;10,15;0,9151890621662038;0,7800042845126194;0;0,7800042845126194;0,9151890621662038;0,22969452164143803;-1,0071108127079074;2,9602954191717274;-8,301034577471237
18:54:33.177;0;Mov;1;1396;9,98;-5,066438795129246;6,844178689687796;2,584063234351634;6,844178689687796;-5,066438795129246;2,584063234351634;3,814813684499649;42,146061586352126;-27,37510299996948
18:54:33.177;0;Mov;1;1397;9,98;-4,419226565599536;7,182738635670034;2,276607610171819;7,182738635670034;-4,419226565599536;2,276607610171819;-2,838221381267739;28,229621265297403;-42,02398754844813
18:54:33.177;0;Mov;1;1398;9,98;-2,8125615138706626;7,444734317300943;2,1450117973113194;7,444734317300943;-2,8125615138706626;2,1450117973113194;-11,291848506118962;14,648884548478652;-50,84383678701132
18:54:33.177;0;Mov;1;1399;9,98;-1,5025848939100315;7,1624013870662555;2,3998291917172767;7,1624013870662555;-1,5025848939100315;2,3998291917172767;-19,287697988830224;0,7324442274239327;-53,16324350718711
18:54:33.178;0;Mov;1;1400;9,98;-0,7201880059396649;7,120529992065188;2,340012913144322;7,120529992065188;-0,7201880059396649;2,340012913144322;-25,910214545121615;-15,655995361186559;-50,81331827753532
18:54:33.234;0;Wrist;1;1371;10,22;0,8063234590060121;0,6424268437948241;0;0,6424268437948241;0,8063234590060121;0,21055330653744622;-1,8311105685598315;3,7537766655476545;-8,667256691183203
18:54:33.234;0;Wrist;1;1372;10,22;0,8996368416585284;0,654390099509415;0;0,654390099509415;0,8996368416585284;0,18782311173875393;-2,71614734336375;4,547257911923582;-9,155552842799157
18:54:33.234;0;Wrist;1;1373;10,22;0,8709250041009247;0,7943602032914212;0;0,7943602032914212;0,8709250041009247;0,2512283700064089;-3,5401470992156745;5,4322946867275;-9,88799707022309
18:54:33.234;0;Wrist;1;1374;10,22;0,8960478768654438;0,830249970435194;0;0,830249970435194;0,8960478768654438;0,2895108002143925;-4,272591326639607;7,538071840571306;-10,284737693411055
18:54:33.234;0;Wrist;1;1375;10,22;0,9175817252304147;0,7871822140987884;0;0,7871822140987884;0,9175817252304147;0,29549242807168796;-4,974517044587542;10,22370067445906;-10,101626636555071
18:54:33.235;0;Wrist;1;1376;9,96;0,7800042845126194;0,6783166109385967;0;0,6783166109385967;0,7800042845126194;0,40675069429609056;-5,615405743583484;13,275551622058778;-10,101626636555071
18:54:33.235;0;Wrist;1;1377;9,96;0,6316598898091067;0;0;0,4665669728690451;0,6316598898091067;0,45221108389347514;-5,615405743583484;18,005920590838343;-9,704886013367107
18:54:33.235;0;Wrist;1;1378;9,96;0;0;0,6244819602229377;-0,2703695851104007;0,1315958128604999;0,6244819602229377;-5,066072573015534;24,262215033417768;-8,48414563432722
18:54:33.235;0;Wrist;1;1379;9,96;0,7548814713545641;1,5528306394390698;1,08387094389935;1,5528306394390698;0,7548814713545641;1,08387094389935;-2,5940733054597613;32,990508743552965;-4,24207281716361
18:54:33.235;0;Wrist;1;1380;9,96;0,7357402264473403;1,0874599682988983;1,2154667567598498;1,0874599682988983;0,7357402264473403;1,2154667567598498;0,5798516800439466;41,84087649159215;-1,5564439832758568
18:54:33.237;0;Mov;1;1401;10,04;0;7,017645897549364;2,10194398136845;7,017645897549364;-0,12441786092190694;2,10194398136845;-30,579546494949188;-32,532731101413006;-46,021912289803765
18:54:33.237;0;Mov;1;1402;10,04;0;6,631232928708762;1,7418500082018493;6,631232928708762;-0,16628926337378308;1,7418500082018493;-34,69954527420881;-49,195837275307476;-41,84087649159215
18:54:33.238;0;Mov;1;1403;10,04;-0,6364452159375286;6,242427117984557;1,3530441974776453;6,242427117984557;-0,6364452159375286;1,3530441974776453;-37,59880367442854;-64,42457350383008;-40,040284432508315
18:54:33.238;0;Mov;1;1404;10,04;-1,1269387598422194;5,64187149037141;0,7883785754341258;5,64187149037141;-1,1269387598422194;0,7883785754341258;-41,74932096316416;-78,3715323343608;-42,87850581377606
18:54:33.238;0;Mov;1;1405;10,04;-1,4487502431943724;4,986285267952513;0;4,986285267952513;-1,4487502431943724;0,3194189395008698;-46,113467818231754;-90,2127140110477;-49,501022370067446
18:54:33.268;0;Mov;1;1406;9,93;-1,4080752691351055;4,0543472663045135;0;4,0543472663045135;-1,4080752691351055;-0,21773125102523117;-50,355540635395364;-100,46693319498276;-58,10724204229865
18:54:33.268;0;Mov;1;1407;9,93;-1,2094851289025543;3,1535143017365033;-0,5072420661412397;3,1535143017365033;-1,2094851289025543;-0,5072420661412397;-54,597613452558974;-108,21863460188604;-66,92709128086184
18:54:33.268;0;Mov;1;1408;9,93;-1,0671224812692648;2,2730185857722707;-0,7847896106410412;2,2730185857722707;-1,0671224812692648;-0,7847896106410412;-57,28324228644673;-115,05478072450941;-74,80086672566912
18:54:33.268;0;Mov;1;1409;9,93;0;1,369792779320658;-1,13052766502884;1,369792779320658;-0,22610554194673757;-1,13052766502884;-61,06753746147038;-121,18900112918485;-82,09479049043244
18:54:33.268;0;Mov;1;1410;9,93;1,006109781754509;0;-1,4882290347376934;0,12082888867801446;1,006109781754509;-1,4882290347376934;-66,65242469557786;-124,9427777947325;-87,40501113925596
18:54:33.291;0;Wrist;1;1381;9,99;0,7512924469550157;0,8721213654362621;1,3327067104480117;0,8721213654362621;0,7512924469550157;1,3327067104480117;1,3122959074678793;55,08590960417493;-0,8850367748039186
18:54:33.292;0;Wrist;1;1382;9,99;0,7584704361476485;1,2106815498443555;1,528904128009888;1,2106815498443555;0,7584704361476485;1,528904128009888;-3,9979247413556322;71,44383068330943;-2,2583697012237924
18:54:33.292;0;Wrist;1;1383;9,99;0,9618457832956938;1,0683187829981384;1,5265114053392133;1,0683187829981384;0,9618457832956938;1,5265114053392133;-10,559404278695029;87,52708517715995;-4,638813440351573
18:54:33.292;0;Wrist;1;1384;9,99;1,2848536875896481;1,1101901779992065;1,5277078262810144;1,1101901779992065;1,2848536875896481;1,5277078262810144;-20,355845820490128;103,61033967101046;-9,949034089175084
18:54:33.292;0;Wrist;1;1385;9,99;1,4272164544358654;1,0683187829981384;1,5013885921811578;1,0683187829981384;1,4272164544358654;1,5013885921811578;-34,638508255256816;117,67937253944517;-16,693624683370466
18:54:33.358;0;Wrist;1;1386;10,07;1,5109592444380016;0,9116000973731193;1,4487502431943724;0,9116000973731193;1,5109592444380016;1,4487502431943724;-53,224280526139104;128,48292489394817;-23,25510422070986
18:54:33.358;0;Wrist;1;1387;10,07;1,7394574047441023;0,9510788293099764;1,2716941301461837;0,9510788293099764;1,7394574047441023;1,2716941301461837;-65,40116580706199;137,15018158513138;-29,267250587481307
18:54:33.358;0;Wrist;1;1388;10,07;1,7310831734290597;0,8075197607348857;1,1089938762703329;0,8075197607348857;1,7310831734290597;1,1089938762703329;-74,67879268776512;142,1857356486709;-36,71376689962462
18:54:33.358;0;Wrist;1;1389;10,07;1,768169242301706;0,6675496569528794;1,0240546653263956;0,6675496569528794;1,768169242301706;1,0240546653263956;-87,67967772453993;144,4746238593707;-43,94665364543596
18:54:33.358;0;Wrist;1;1390;10,07;1,8447341027176734;0,5993591470648824;1,0324290158543656;0,5993591470648824;1,8447341027176734;1,0324290158543656;-96,34693441572314;147,58751182592243;-49,07376323740348
18:54:33.359;0;Mov;1;1411;10,14;2,7623158875545517;-1,6916043818857387;-1,1101901779992065;-1,6916043818857387;2,7623158875545517;-1,1101901779992065;-75,96057008575701;-125,79729606006043;-88,90041810357982
18:54:33.359;0;Mov;1;1412;10,14;3,6858791810357983;-3,880880296868801;-1,057551829012421;-3,880880296868801;3,6858791810357983;-1,057551829012421;-81,33182775353252;-128,94070253608814;-83,7733085116123
18:54:33.359;0;Mov;1;1413;10,14;4,482632106997894;-5,357146195104831;-1,6473403834269233;-5,357146195104831;4,482632106997894;-1,6473403834269233;-80,05005035554063;-130,558183538316;-73,85479293191321
18:54:33.359;0;Mov;1;1414;10,14;4,254133827478866;-7,412433336130864;-2,130655938138981;-7,412433336130864;4,254133827478866;-2,130655938138981;-75,93005157628102;-128,5439619129002;-64,30249946592609
18:54:33.359;0;Mov;1;1415;10,14;4,053151322214423;-8,698483802301096;-3,4837000164036986;-8,698483802301096;4,053151322214423;-3,4837000164036986;-69,46012756736961;-124,60707419049653;-56,73390911587878
18:54:33.360;0;Mov;1;1416;9,9;4,11535996581927;-9,24281193731498;-4,739842104861599;-9,24281193731498;4,11535996581927;-4,739842104861599;-67,20175786614581;-115,2073732718894;-52,24768822290719
18:54:33.360;0;Mov;1;1417;9,9;3,5231788079470197;-9,930699140903958;-5,895492702261421;-9,930699140903958;3,5231788079470197;-5,895492702261421;-65,82842493972595;-100,89419232764672;-53,743095187231056
18:54:33.360;0;Mov;1;1418;9,9;4,435975505081331;-10,24054689168981;-6,857338366344187;-10,24054689168981;4,435975505081331;-6,857338366344187;-65,76738792077396;-83,19345683156834;-57,37479781487472
18:54:33.360;0;Mov;1;1419;9,9;5,186071352275155;-9,909164517654958;-7,508139381847591;-9,909164517654958;5,186071352275155;-7,508139381847591;-65,61479537339396;-63,0512405774102;-58,534501174962614
18:54:33.360;0;Mov;1;1420;9,9;5,432514515366069;-9,722538109988708;-8,06802003540147;-9,722538109988708;5,432514515366069;-8,06802003540147;-63,35642567217017;-42,146061586352126;-59,877315591906495
18:54:33.380;0;Wrist;1;1391;9,94;1,682033729628895;0,6017517505226295;1,0719076881847591;0,6017517505226295;1,682033729628895;1,0719076881847591;-104,77004303109837;152,59254737998597;-53,071687978759115
18:54:33.381;0;Wrist;1;1392;9,94;1,662892544328135;0;1,2226448055589465;0,28352917235709707;1,662892544328135;1,2226448055589465;-104,52589495529038;157,4755088961455;-56,550798059022796
18:54:33.381;0;Wrist;1;1393;9,94;1,7920957537308877;0,7620594009407331;1,5348857558671833;0,7620594009407331;1,7920957537308877;1,5348857558671833;-97,23197119052705;159,9169896542253;-59,968871120334484
18:54:33.381;0;Wrist;1;1394;9,94;2,276607610171819;0,9331339457380902;2,110318451109348;0,9331339457380902;2,276607610171819;2,110318451109348;-92,4100466933195;161,50395214697716;-63,87524033326213
18:54:33.381;0;Wrist;1;1395;9,94;2,696517981124302;1,496603266052736;2,8963043038727987;1,496603266052736;2,696517981124302;2,8963043038727987;-92,65419476912747;164,25061799981688;-69,33805352946563
18:54:33.424;0;Mov;1;1421;9,97;5,90506311609241;-8,855202070680868;-8,358726958525345;-8,855202070680868;5,90506311609241;-8,358726958525345;-58,22931608020264;-20,99673451948607;-63,447981200598164
18:54:33.425;0;Mov;1;1422;9,97;6,720957346568194;-7,68280301065096;-8,194830164494766;-7,68280301065096;6,720957346568194;-8,194830164494766;-50,569170201727346;-0,8239997558519242;-69,24649800103762
18:54:33.425;0;Mov;1;1423;9,97;7,320316076387829;-8,885110209967346;-9,544285218359935;-8,885110209967346;7,320316076387829;-9,544285218359935;-29,78606524857326;15,44236579485458;-72,96975615710929
18:54:33.425;0;Mov;1;1424;9,97;12,305405400250251;-17,215124973296305;-4,047169694357128;-17,215124973296305;12,305405400250251;-4,047169694357128;-1,2512588885158848;48,15820795312357;-77,66960661641285
18:54:33.425;0;Mov;1;1425;9,97;6,324973487044892;-29,160435804315316;16,4638336588641;-29,160435804315316;6,324973487044892;16,4638336588641;97,96441541795099;55,177465132602926;-34,7911008026368
18:54:33.441;0;Wrist;1;1396;9,99;2,897500486388745;1,6270027771843623;3,3879939706869715;1,6270027771843623;2,897500486388745;3,3879939706869715;-97,07937864314707;169,19461653492843;-75,74694051942502
18:54:33.441;0;Wrist;1;1397;9,99;2,954924161503952;1,24298229258858;3,992138622699667;1,24298229258858;2,954924161503952;3,992138622699667;-103,57982116153447;177,1599475081637;-83,98693807794427
18:54:33.441;0;Wrist;1;1398;9,99;1,7932920554597613;1,5205297774819178;4,081863040559099;1,5205297774819178;1,7932920554597613;4,081863040559099;-114,38337351603748;192,14453566087832;-96,10278633991516
18:54:33.441;0;Wrist;1;1399;9,99;-2,7838495571001314;0;8,173296494949186;0,3624866660340434;-2,7838495571001314;8,173296494949186;-121,98248237556078;222,7851191747795;-116,45863216040529
18:54:33.441;0;Wrist;1;1400;9,99;3,57820987960448;-3,657167224265267;17,48669202246162;-3,657167224265267;3,57820987960448;17,48669202246162;-114,56648457289346;240,2417065950499;-131,96203497421186
18:54:33.482;0;Mov;1;1426;10,01;-15,747234260078738;-8,124247528000732;21,343644138920254;-8,124247528000732;-15,747234260078738;21,343644138920254;193,73149815363018;-56,58131656849879;91,76915799432356
18:54:33.482;0;Mov;1;1427;10,01;-9,194958914456619;38,13766518143254;5,215979491561632;38,13766518143254;-9,194958914456619;5,215979491561632;126,95699942014832;-55,360576189458904;200,17090365306558
18:54:33.482;0;Mov;1;1428;10,01;12,895193716238898;9,630420850245674;1,953599705877865;9,630420850245674;12,895193716238898;1,953599705877865;40,92532120731224;6,042664876247444;5,127109591967528
18:54:33.482;0;Mov;1;1429;10,01;4,671651356547746;-30,695322275460068;0;-30,695322275460068;4,671651356547746;0,12800683316579944;13,000885036774804;6,683553575243385;-61,00650044251839
18:54:33.482;0;Mov;1;1430;10,01;-10,439137508774072;7,721085619678335;0;7,721085619678335;-10,439137508774072;-0,3947874385814997;20,264290292062135;10,956144901882992;68,66664632099368
18:54:33.500;0;Wrist;1;1401;10,03;8,071608821375165;-4,485024472029786;19,484555726798302;-4,485024472029786;8,071608821375165;19,484555726798302;-103,51878414258248;204,2603839228492;-106,78426465651418
18:54:33.500;0;Wrist;1;1402;10,03;1,8184148686178168;0,7632557026696066;16,471011230811488;0,7632557026696066;1,8184148686178168;16,471011230811488;-87,89330729087192;138,76766258735924;-86,36738181707206
18:54:33.500;0;Wrist;1;1403;10,03;1,0180730374691;5,80696422849208;15,151463362529373;5,80696422849208;1,0180730374691;15,151463362529373;-73,30545976134526;91,03671376689962;-92,22693563646351
18:54:33.500;0;Wrist;1;1404;10,03;6,481692232276376;8,36351264229255;14,518607707449569;8,36351264229255;6,481692232276376;14,518607707449569;-66,2251655629139;43,33628345591601;-114,20026245918149
18:54:33.500;0;Wrist;1;1405;10,03;14,506644451734978;10,954753448591571;10,1292888042848;10,954753448591571;14,506644451734978;10,1292888042848;-69,97894222846156;16,907254249702444;-107,45567186498612
18:54:33.508;0;Mov;1;1431;9,9;1,728690450758385;-1,208288827173681;0,5024567400128178;-1,208288827173681;1,728690450758385;0,5024567400128178;35,187841425824764;4,058961760307627;7,538071840571306
18:54:33.508;0;Mov;1;1432;9,9;-2,535014028977325;-8,87793263801996;0;-8,87793263801996;-2,535014028977325;-0,1292031646979049;30,274361400189214;-8,636738181707205;13,092440565202795
18:54:33.508;0;Mov;1;1433;9,9;0;2,2670369579149754;0;2,2670369579149754;-0,4223029446069979;0,21892758255733666;36,50013733329264;-14,984588152714622;23,25510422070986
18:54:33.509;0;Mov;1;1434;9,9;1,2597308744315927;-0,525186949713126;0;-0,525186949713126;1,2597308744315927;0,239265114291818;29,755546739097262;-10,193182164983062;12,72621845149083
18:54:33.509;0;Mov;1;1435;9,9;0;-0,7417218543046358;0;-0,7417218543046358;-0,1770561875562685;0,08135014183954131;18,402661214026306;-6,2868129520554215;9,430219428083133
18:54:33.531;0;Wrist;1;1406;9,94;17,436445204016234;9,20931405835139;10,996624843592638;9,20931405835139;17,436445204016234;10,996624843592638;-69,27701651051363;3,204443494979705;-62,318796349986265
18:54:33.531;0;Wrist;1;1407;9,94;17,471139027069917;10,804016808069093;10,391284485915708;10,804016808069093;17,471139027069917;10,391284485915708;-60,8539078951384;-11,84118167668691;-11,230811487166967
18:54:33.531;0;Wrist;1;1408;9,94;17,75945310831019;12,29344214453566;9,985729735709707;12,29344214453566;17,75945310831019;9,985729735709707;-46,35761589403973;-23,56028931546983;30,579546494949188
18:54:33.531;0;Wrist;1;1409;9,94;17,58239806817835;11,976415868099002;9,577783097323527;11,976415868099002;17,58239806817835;9,577783097323527;-33,11258278145695;-43,91613513595996;74,70931119724112
18:54:33.531;0;Wrist;1;1410;9,94;15,272292817468795;13,382098414563433;8,906643879512925;13,382098414563433;15,272292817468795;8,906643879512925;-13,275551622058778;-67,59849848933378;116,91640980254525
18:54:33.568;0;Mov;1;1436;9,95;0;0;0;-0,13518479255520036;-0,30745568378627885;0,0957060457167272;15,930661946470535;-4,943998535111545;10,864589373455
18:54:33.569;0;Mov;1;1437;9,95;1,1903439436017944;-0,7477034821619312;0;-0,7477034821619312;1,1903439436017944;0,09929502541142765;13,153477584154789;-2,9602954191717274;11,07821893978698
18:54:33.569;0;Mov;1;1438;9,95;0,8864772842150639;0;0;-0,22012391408944212;0,8864772842150639;0,2464430736812189;5,706961272011475;0;7,660145878475295
18:54:33.569;0;Mov;1;1439;9,95;0;0;0;0,10049134949272515;0,1674855800042726;0,23089083827192755;0,21362956633198035;4,364146855067599;3,662221137119663
18:54:33.570;0;Mov;1;1440;9,95;-0,5921811578722496;-0,6711386813524277;0;-0,6711386813524277;-0,5921811578722496;-0,02990813928647725;-1,4648884548478653;7,17184972685934;2,6245918149357585
18:54:33.591;0;Wrist;1;1411;9,99;11,94172204504532;13,857038903469954;7,917282918027284;13,857038903469954;11,94172204504532;7,917282918027284;8,636738181707205;-98,75789666432692;147,00766014587848
18:54:33.591;0;Wrist;1;1412;9,99;7,417218543046357;13,858235801263467;7,157616180150762;13,858235801263467;7,417218543046357;7,157616180150762;29,969176305429244;-132,54188665425582;153,47758415478987
18:54:33.591;0;Wrist;1;1413;9,99;4,694381447035127;12,542277672658468;7,2652854815820795;12,542277672658468;4,694381447035127;7,2652854815820795;50,08087405011139;-168,4621723075045;135,28855250709555
18:54:33.591;0;Wrist;1;1414;9,99;4,309164899136326;10,303951956236457;7,100192266609699;10,303951956236457;4,309164899136326;7,100192266609699;66,89657277138585;-207,4648274178289;106,93685720389416
18:54:33.591;0;Wrist;1;1415;9,99;5,409784424878689;8,00102523117771;6,186199625385296;8,00102523117771;5,409784424878689;6,186199625385296;81,27079073458053;-240,42481765190587;92,22693563646351
18:54:33.629;0;Mov;1;1441;9,99;0;0;0;-0,43665883358256785;-0,42828457246429336;0,007177953801294938;-0,6103701895199438;7,690664387951292;4,791405987731559
18:54:33.629;0;Mov;1;1442;9,99;0;0;0;-0,20457167868015075;-0,026319163317180778;0,1543260076591922;0,061037018951994385;9,826960051271096;6,622516556291391
18:54:33.629;0;Mov;1;1443;9,99;0;0;0;0,13997008888039034;-0,0957060457167272;0,29190343347537157;-0,8239997558519242;15,10666219061861;7,599108859523301
18:54:33.629;0;Mov;1;1444;9,99;0;0;0;-0,03349711525577372;-0,1866267951082644;0,3732535902165288;-2,5025177770317697;22,461622974333935;9,430219428083133
18:54:33.629;0;Mov;1;1445;9,99;0;0;0,5574877520638142;0,04426404688906713;-0,3134373116435743;0,5574877520638142;-4,516739402447585;31,95287942136906;12,787255470442824
18:54:33.652;0;Wrist;1;1416;10,04;5,747147949919126;5,052083174382763;5,079598471785638;5,052083174382763;5,747147949919126;5,079598471785638;93,69182409131137;-262,6117740409558;98,11700796533097
18:54:33.652;0;Wrist;1;1417;10,04;4,811621639149144;2,523050773262734;3,8318308530686362;2,523050773262734;4,811621639149144;3,8318308530686362;100,0396740623188;-273,2932523575549;115,35996581926939
18:54:33.652;0;Wrist;1;1418;10,04;4,571160103915525;0;3,23247164639729;0,16628926337378308;4,571160103915525;3,23247164639729;100,52797021393475;-274,39191869869074;134,7697378460036
18:54:33.652;0;Wrist;1;1419;10,04;3,77560359889523;-1,813629542489395;2,5493698881496627;-1,813629542489395;3,77560359889523;2,5493698881496627;98,02545243690298;-273,41532639545886;159,00143436994537
18:54:33.652;0;Wrist;1;1420;10,04;1,976329915578173;-3,4406324388866847;2,155778632084109;-3,4406324388866847;1,976329915578173;2,155778632084109;97,01834162419507;-266,79280983916743;179,5098727378155
18:54:33.657;0;Mov;1;1446;9,9;0;0;0,6819055757316813;-0,4199102815427869;-0,20935697500534073;0,6819055757316813;-5,76799829096347;44,5570238349559;16,235847041230507
18:54:33.657;0;Mov;1;1447;9,9;0;-0,8135013885921811;0,9762017020744956;-0,8135013885921811;0,4426404614398633;0,9762017020744956;-5,7374797814874725;60,39613025299845;16,96829126865444
18:54:33.657;0;Mov;1;1448;9,9;0;1,269301407475509;1,4331980822931607;1,269301407475509;0,33736382307275614;1,4331980822931607;-7,538071840571306;79,92797631763665;14,923551133762627
18:54:33.658;0;Mov;1;1449;9,9;0;0;1,5624011724829858;0,3923948053205206;-0,14714804826979125;1,5624011724829858;-7,904293954283273;101,47404400769067;15,655995361186559
18:54:33.658;0;Mov;1;1450;9,9;0;0;1,7083529637287516;-0,21055330653744622;0,02990813928647725;1,7083529637287516;-2,5025177770317697;125,76677755058444;18,89095736564226
18:54:33.680;0;Wrist;1;1421;9,94;-0,7165990411465804;-5,736381115146337;2,9836361182744833;-5,736381115146337;-0,7165990411465804;2,9836361182744833;98,54426709799493;-255,89770195623646;190,86275826288644
18:54:33.680;0;Wrist;1;1422;9,94;-4,617816705832087;-8,801367419965208;2,180901564455092;-8,801367419965208;-4,617816705832087;2,180901564455092;105,59404278695028;-253,63933225501268;184,942167424543
18:54:33.680;0;Wrist;1;1423;9,94;-7,723477984710227;-12,450160412915434;0;-12,450160412915434;-7,723477984710227;-0,18543046357615894;109,04263435773797;-243,5682241279336;163,64024781029696
18:54:33.680;0;Wrist;1;1424;9,94;-7,658876499221778;-15,775945501571703;-2,141422772911771;-15,775945501571703;-7,658876499221778;-2,141422772911771;99,91760002441481;-226,87459944456313;142,09418012024292
18:54:33.680;0;Wrist;1;1425;9,94;-11,819696646015808;-19,43909459212012;-3,3150182538834803;-19,43909459212012;-11,819696646015808;-3,3150182538834803;83,22397534104434;-205,3895687734611;136,9060335093234
18:54:33.719;0;Mov;1;1451;9,95;-0,5491134611423079;0,8469984926717429;1,6150395214697715;0,8469984926717429;-0,5491134611423079;1,6150395214697715;2,5025177770317697;151,92114017151403;26,612140263069552
18:54:33.719;0;Mov;1;1452;9,95;-0,8422132261497849;0;1,3410809417630543;0,2631916257209998;-0,8422132261497849;1,3410809417630543;5,279702139347514;177,55668813135168;35,24887844477676
18:54:33.719;0;Mov;1;1453;9,95;-0,764452064004944;0;1,1520615730002746;-0,13757744071779535;-0,764452064004944;1,1520615730002746;7,38547929319132;198,8586077455977;45,38102359080783
18:54:33.720;0;Mov;1;1454;9,95;-1,4654988250373853;0;1,3303141069902646;-0,19500107112815485;-1,4654988250373853;1,3303141069902646;7,9958494827112645;218,6651203955199;57,771538438062684
18:54:33.720;0;Mov;1;1455;9,95;-2,0110233809930724;0;1,7418500082018493;-0,3349711600085452;-2,0110233809930724;1,7418500082018493;11,871700186162908;243,20200201422162;72,05420087282937
18:54:33.740;0;Wrist;1;1426;9,99;-11,475155072176275;-20,965605639820552;-6,60730641727958;-20,965605639820552;-11,475155072176275;-6,60730641727958;67,3848689230018;-187,68883327738274;135,8073671681875
18:54:33.740;0;Wrist;1;1427;9,99;-11,079171689504685;-21,9418069246498;-10,32907536545915;-21,9418069246498;-11,079171689504685;-10,32907536545915;57,5579088717307;-161,9312112796411;101,59611804559465
18:54:33.741;0;Wrist;1;1428;9,99;-9,019098864711447;-23,952831736198004;-12,253962637714775;-23,952831736198004;-9,019098864711447;-12,253962637714775;54,71968749046297;-127,2621845149083;65,61479537339396
18:54:33.741;0;Wrist;1;1429;9,99;-6,865712359233375;-23,471907712027345;-15,318948942533646;-23,471907712027345;-6,865712359233375;-15,318948942533646;55,66576128421888;-96,31641590624714;42,81746879482406
18:54:33.741;0;Wrist;1;1430;9,99;-6,067763489181188;-20,250204092532123;-15,557018112735374;-20,250204092532123;-6,067763489181188;-15,557018112735374;53,10220648823511;-62,92916653950621;27,588732566301463
18:54:33.778;0;Mov;1;1456;9,99;-2,1222817068239386;0;2,2622517509994813;-0,20337534714804528;-2,1222817068239386;2,2622517509994813;15,564439832758568;274,7581408124027;90,1211584826197
18:54:33.778;0;Mov;1;1457;9,99;-2,5051058896908476;0;2,9022859317300944;-0,22012391408944212;-2,5051058896908476;2,9022859317300944;19,98962370677816;316,0191656239509;110,04974517044587
18:54:33.779;0;Mov;1;1458;9,99;-3,020722067934202;0;4,750608939634389;-0,019141209515885837;-3,020722067934202;4,750608939634389;28,77895443586535;369,21292764061405;130,98544267097995
18:54:33.779;0;Mov;1;1459;9,99;-4,3354837755974;1,5001922904522844;7,122922357097079;1,5001922904522844;-4,3354837755974;7,122922357097079;53,95672475356304;430,00579851680044;155,46128727072968
18:54:33.779;0;Mov;1;1460;9,99;-4,540055543687246;1,7789361962874233;6,944669942320017;1,7789361962874233;-4,540055543687246;6,944669942320017;96,19434186834314;484,4203009125034;179,6014282662435
18:54:33.803;0;Wrist;1;1431;10,04;-4,769750244148076;-16,54996833704642;-15,286648915066989;-16,54996833704642;-4,769750244148076;-15,286648915066989;48,615985595263524;-29,02310251167333;31,006805627613147
18:54:33.803;0;Wrist;1;1432;10,04;-5,255458521530809;-12,06255054628132;-14,70882290108951;-12,06255054628132;-5,255458521530809;-14,70882290108951;46,63228247932371;-8,209479049043244;40,55909909360027
18:54:33.803;0;Wrist;1;1433;10,04;-6,127579767754143;-9,660328989532152;-16,292758339182715;-9,660328989532152;-6,127579767754143;-16,292758339182715;41,44413586840419;3,8758507034516434;46,84591204565569
18:54:33.803;0;Wrist;1;1434;10,04;-11,880709822382276;-17,699636829737237;-19,72382084109012;-17,699636829737237;-11,880709822382276;-19,72382084109012;5,615405743583484;28,839991454817348;36,22547074800867
18:54:33.803;0;Wrist;1;1435;10,04;-20,77658734397412;-34,43264183477279;-1,5265114053392133;-34,43264183477279;-20,77658734397412;-1,5265114053392133;-77,48649555955687;93,66130558183538;9,949034089175084
18:54:33.822;0;Mov;1;1461;9,97;-1,616235823198645;-1,0336253175832393;10,277633556627094;-1,0336253175832393;-1,616235823198645;10,277633556627094;122,07403790398877;514,1758476516007;207,89208655049288
18:54:33.822;0;Mov;1;1462;9,97;-2,0170050088503677;-2,0947661709952086;16,203033921323282;-2,0947661709952086;-2,0170050088503677;16,203033921323282;93,81389812921537;476,9127475814081;208,19727164525284
18:54:33.822;0;Mov;1;1463;9,97;-3,9287333197271646;-2,2335397942289497;16,96987823114719;-2,2335397942289497;-3,9287333197271646;16,96987823114719;76,90664387951293;376,50685140537735;170,04913480025635
18:54:33.823;0;Mov;1;1464;9,97;-2,4141850508896145;-5,765092833491012;24,308139667958617;-5,765092833491012;-2,4141850508896145;24,308139667958617;50,08087405011139;271,858882412183;111,78930021057772
18:54:33.823;0;Mov;1;1465;9,97;-8,46280747398297;-0,6555864012382885;30,440504165776545;-0,6555864012382885;-8,46280747398297;30,440504165776545;35,76769310586871;133,8847010711997;78,1579027680288
18:54:33.838;0;Wrist;1;1436;9,98;0;-22,404786065248572;30,343602175969725;-22,404786065248572;-0,15911130398438214;30,343602175969725;-189,94720297860653;73,48857081820124;-61,64738914151433
18:54:33.838;0;Wrist;1;1437;9,98;5,3045074884792625;39,19999923703726;-2,3890621185186314;39,19999923703726;5,3045074884792625;-2,3890621185186314;0,5188146610919523;105,71611682485427;-150,12054811243019
18:54:33.838;0;Wrist;1;1438;9,98;0,5383465071565905;15,417047830133976;0;15,417047830133976;0,5383465071565905;0,46417433960806603;6,40888698995941;22,7973265785699;34,7911008026368
18:54:33.838;0;Wrist;1;1439;9,98;-2,377098862804041;-34,97936567278054;2,417774075289163;-34,97936567278054;-2,377098862804041;2,417774075289163;-13,946958830530717;-70,03997924741356;94,85152745139928
18:54:33.838;0;Wrist;1;1440;9,98;-0,8517838188001648;3,988549598300119;0;3,988549598300119;-0,8517838188001648;0,3947874385814997;5,584887234107486;45,10635700552385;-89,60234382152775
18:54:33.868;0;Mov;1;1466;9,95;-13,049519142735068;13,646485984374523;17,59196752830592;13,646485984374523;-13,049519142735068;17,59196752830592;92,77626880703147;3,204443494979705;76,082644123661
18:54:33.868;0;Mov;1;1467;9,95;-9,139927365947447;16,41837252418592;9,953428754539628;16,41837252418592;-9,139927365947447;9,953428754539628;100,25330362865078;-35,340433973204746;53,49894711142308
18:54:33.868;0;Mov;1;1468;9,95;-8,127836313974425;9,875667592394787;11,786199720755638;9,875667592394787;-8,127836313974425;11,786199720755638;29,145176549577318;-49,43998535111545;11,566515091402936
18:54:33.868;0;Mov;1;1469;9,95;-12,700192838831752;11,720401814325388;11,069600321970276;11,720401814325388;-12,700192838831752;11,069600321970276;16,2968840601825;-69,5822016052736;5,3102206488235115
18:54:33.868;0;Mov;1;1470;9,95;-10,13048474837489;14,822473830378124;9,712967696157719;14,822473830378124;-10,13048474837489;9,712967696157719;7,141331217383343;-103,42722861415449;-4,1810357982116155
18:54:33.890;0;Wrist;1;1441;9,87;1,179576989616077;3,599743787575915;0;3,599743787575915;1,179576989616077;-0,013159581658590389;6,134220404675435;18,4942167424543;-25,147251808221686
18:54:33.890;0;Wrist;1;1442;9,87;2,819739324243904;-7,4782312425611135;1,0515702011551256;-7,4782312425611135;2,819739324243904;1,0515702011551256;-0,3967406231879635;-6,225775933103427;16,418958098086488
18:54:33.890;0;Wrist;1;1443;9,87;0,6268746232871486;2,353172351374859;0,7991454698133793;2,353172351374859;0,6268746232871486;0,7991454698133793;-1,0681478316599018;6,683553575243385;-21,912289803765983
18:54:33.890;0;Wrist;1;1444;9,87;2,9680838381603443;0;0;-0,46297800807596057;2,9680838381603443;-0,40794702582819603;-1,73955504013184;7,4159978026673175;-15,564439832758568
18:54:33.890;0;Wrist;1;1445;9,87;1,8590899618900112;0;0,727365935525834;-0,15552232428968168;1,8590899618900112;0,727365935525834;-6,653035065767388;-2,1362956633198036;-12,970366527298808
18:54:33.928;0;Mov;1;1471;9,92;-8,987993827631458;13,458662678914761;9,025080492568742;13,458662678914761;-8,987993827631458;9,025080492568742;-20,844141972106083;-141,239661854915;-29,725028229621266
18:54:33.928;0;Mov;1;1472;9,92;-8,64943388164922;13,59863296151616;7,363383892330699;13,59863296151616;-8,64943388164922;7,363383892330699;-43,09213538010803;-179,96765037995544;-49,9893185216834
18:54:33.928;0;Mov;1;1473;9,92;-5,263832514419995;13,395257614368115;5,835676423688467;13,395257614368115;-5,263832514419995;5,835676423688467;-62,10516678365428;-218,2683797723319;-64,02783288064211
18:54:33.928;0;Mov;1;1474;9,92;-3,3736381115146337;11,089938047425763;4,976714377269814;11,089938047425763;-3,3736381115146337;4,976714377269814;-81,69804986724448;-255,92822046571246;-69,5516830957976
18:54:33.928;0;Mov;1;1475;9,92;-5,942149304177984;9,431831186864834;4,409656151768548;9,431831186864834;-5,942149304177984;4,409656151768548;-76,052125614185;-285,9584337900937;-70,16205328531754
18:54:33.959;0;Wrist;1;1446;9,99;0,7500961452261422;0;0;0,07895748622613834;0,7500961452261422;0,43546250205046233;-10,040589617603077;2,044740134891812;-17,120883816034425
18:54:33.959;0;Wrist;1;1447;9,99;-0,588592193079165;0;0,8481948540070803;0,14954069643238624;-0,588592193079165;0,8481948540070803;-10,284737693411055;2,9908139286477247;-12,146366771446882
18:54:33.959;0;Wrist;1;1448;9,99;0;0,5347575423635059;0,7453108190977202;0,5347575423635059;0,29190343347537157;0,7453108190977202;-6,469924008911405;6,19525742362743;-8,758812219611194
18:54:33.959;0;Wrist;1;1449;9,99;1,0216620618686483;0,7560777730834376;0,5168126587916196;0,7560777730834376;1,0216620618686483;0,5168126587916196;-5,279702139347514;9,735404522843105;-8,14844203009125
18:54:33.959;0;Wrist;1;1450;9,99;1,1640248287148656;1,0096988061540575;0,5024567400128178;1,0096988061540575;1,1640248287148656;0,5024567400128178;-6,897183141575366;13,58073671681875;-10,22370067445906
18:54:33.960;0;Mov;1;1476;9,83;-5,8093570703756825;7,691177480391858;1,6772485227134006;7,691177480391858;-5,8093570703756825;1,6772485227134006;-66,4082766197699;-313,51664784691917;-97,23197119052705
18:54:33.960;0;Mov;1;1477;9,83;-2,3986327707754755;6,1766292115543076;1,0192694584109012;6,1766292115543076;-2,3986327707754755;1,0192694584109012;-73,9768669698172;-317,88079470198676;-136,63136692403944
18:54:33.960;0;Mov;1;1478;9,83;-1,7980773815881832;4,272078711050752;3,1475326738792075;4,272078711050752;-1,7980773815881832;3,1475326738792075;-83,13241981261635;-313,4556108279672;-162,41950743125705
18:54:33.960;0;Mov;1;1479;9,83;-1,9524034041489913;1,927280590990936;3,9849605739005707;1,927280590990936;-1,9524034041489913;3,9849605739005707;-79,98901333658864;-320,90212714011045;-184,942167424543
18:54:33.960;0;Mov;1;1480;9,83;0;0;2,283785658970916;-0,2751548814355907;-0,3732535902165288;2,283785658970916;-71,6574602496414;-328,59279152806175;-212,68349253822444
18:54:33.980;0;Wrist;1;1451;9,84;0;0,5850032282860805;0,5682546464430677;0,5850032282860805;0,44503312450407423;0,5682546464430677;-8,392590105899227;17,60917996765038;-12,421033356730858
18:54:33.980;0;Wrist;1;1452;9,84;0,5730399725714896;1,003717178296762;0,7249733320680868;1,003717178296762;0,5730399725714896;0,7249733320680868;-9,094515823847164;23,316141239661857;-12,512588885158848
18:54:33.980;0;Wrist;1;1453;9,84;0,8948515155301066;0,7512924469550157;0,8027344942129276;0,7512924469550157;0,8948515155301066;0,8027344942129276;-11,07821893978698;30,671102023377177;-13,183996093630787
18:54:33.980;0;Wrist;1;1454;9,84;1,0946378978850673;0,7967528663556321;0,8230719812425611;0,7967528663556321;1,0946378978850673;0,8230719812425611;-16,05273598437452;40,46754356517228;-15,472884304330577
18:54:33.980;0;Wrist;1;1455;9,84;1,5468490115817743;0,8242683425778985;1,0671224812692648;0,8242683425778985;1,5468490115817743;1,0671224812692648;-22,339548936429946;52,27820673238319;-20,844141972106083
18:54:34.040;0;Wrist;1;1456;9,95;1,6006836622974334;0,7201880059396649;1,2370006647312846;0,7201880059396649;1,6006836622974334;1,2370006647312846;-29,48088015381329;66,25568407238991;-29,938657795953247
18:54:34.041;0;Wrist;1;1457;9,95;1,6832301505706961;0;1,26212347788934;0,4306772057252724;1,6832301505706961;1,26212347788934;-33,47880489516892;80,35523545030061;-40,68117313150426
18:54:34.041;0;Wrist;1;1458;9,95;1,7179234967726675;0,9020295047227394;1,3961120134205145;0,9020295047227394;1,7179234967726675;1,3961120134205145;-34,821619312112794;94,72945341349528;-51,91198461867123
18:54:34.041;0;Wrist;1;1459;9,95;0,7967528663556321;1,2549455483031708;1,3291176860484635;1,2549455483031708;0,7967528663556321;1,3291176860484635;-37,537766655476545;106,99789422284616;-59,66368602557451
18:54:34.041;0;Wrist;1;1460;9,95;0;0,6783166109385967;1,13052766502884;0,6783166109385967;0,37205725868442335;1,13052766502884;-39,76561784722434;116,27552110354931;-62,07464827417829
18:54:34.090;0;Mov;1;1481;9,89;3,6858791810357983;-3,722965369121372;1,3530441974776453;-3,722965369121372;3,6858791810357983;1,3530441974776453;-76,47938474684896;-320,4443494979705;-238,16644795068208
18:54:34.091;0;Mov;1;1482;9,89;9,031062120426038;-8,964067316202277;2,2742150067140723;-8,964067316202277;9,031062120426038;2,2742150067140723;-93,02041688283944;-306,3753166295358;-237,64763328959015
18:54:34.091;0;Mov;1;1483;9,89;10,929630993072298;-13,425165753654591;2,525443376720481;-13,425165753654591;10,929630993072298;2,525443376720481;-98,23908200323496;-296,3347270119327;-198,8280892361217
18:54:34.091;0;Mov;1;1484;9,89;8,964067316202277;-18,119546723838006;2,7599230456709494;-18,119546723838006;8,964067316202277;2,7599230456709494;-89,17508468886379;-285,8668782616657;-145,32914212469862
18:54:34.091;0;Mov;1;1485;9,89;6,07972674489578;-23,809272667622913;-1,0683187829981384;-23,809272667622913;6,07972674489578;-1,0683187829981384;-61,555833613086335;-282,78450880458996;-107,97448652607807
18:54:34.092;0;Mov;1;1486;9,89;5,820123905148472;-26,894594790490434;-6,3309551149021885;-26,894594790490434;5,820123905148472;-6,3309551149021885;-35,340433973204746;-263,80199591051974;-80,62990203558458
18:54:34.092;0;Mov;1;1487;9,89;4,379748012482071;-29,235805078279977;-10,46186712240974;-29,235805078279977;4,379748012482071;-10,46186712240974;-38,81954405346843;-227,39341410565507;-63,90575884273812
18:54:34.092;0;Mov;1;1488;9,89;3,362871276741844;-28,08733252967925;-15,37637333292642;-28,08733252967925;3,362871276741844;-15,37637333292642;-50,78279976805933;-185,49150059511092;-50,90487380596332
18:54:34.092;0;Mov;1;1489;9,89;4,169194616534928;-24,086819437238685;-16,295150227362896;-24,086819437238685;4,169194616534928;-16,295150227362896;-80,5078279976806;-130,344553971984;-44,282357249671925
18:54:34.092;0;Mov;1;1490;9,89;4,213458853419599;-20,85674039429914;-15,93744945371868;-20,85674039429914;4,213458853419599;-15,93744945371868;-98,8799707022309;-85,05508590960417;-46,60176396984771
18:54:34.101;0;Wrist;1;1461;9,96;0;1,1030122484130376;1,3183508512756736;1,1030122484130376;0,07536851398224585;1,3183508512756736;-41,566209906308174;124,75966673787653;-62,776573992126224
18:54:34.101;0;Wrist;1;1462;9,96;0;1,7227088229010896;1,2848536875896481;1,7227088229010896;-0,025122837373181287;1,2848536875896481;-45,564134647663806;132,23670155949583;-59,02279732657857
18:54:34.102;0;Wrist;1;1463;9,96;0;0,996539248710593;1,435590685750908;0,996539248710593;0,26438795725310527;1,435590685750908;-50,874355296487316;140,5072176274911;-55,177465132602926
18:54:34.102;0;Wrist;1;1464;9,96;0;1,3004059677037874;1,8578936601611378;1,3004059677037874;0,49408247889454326;1,8578936601611378;-56,64235358745079;152,71462141788996;-54,07879879146702
18:54:34.102;0;Wrist;1;1465;9,96;1,2860499893185218;1,5576159655674917;2,4141850508896145;1,5576159655674917;1,2860499893185218;2,4141850508896145;-62,80709250160222;166,41743217261268;-55,14694662312693
18:54:34.110;0;Mov;1;1491;9,96;6,852553159428694;-16,9579149754326;-14,00538365581225;-16,9579149754326;6,852553159428694;-14,00538365581225;-107,5472273934141;-46,7238380077517;-47,39524521622364
18:54:34.110;0;Mov;1;1492;9,96;7,429181798760949;-14,485109828485976;-11,124631870479446;-14,485109828485976;7,429181798760949;-11,124631870479446;-101,77922910245064;-18,768883327738273;-48,219244972075565
18:54:34.110;0;Mov;1;1493;9,96;8,064431249427779;-10,801623966185492;-10,355394718771935;-10,801623966185492;8,064431249427779;-10,355394718771935;-78,06634723960082;-11,047700430310984;-44,92324594866787
18:54:34.110;0;Mov;1;1494;9,96;7,437556268501846;-5,516257305368206;-10,025208288827173;-5,516257305368206;7,437556268501846;-10,025208288827173;-55,69627979369488;-3,5096285897396773;-42,63435773796808
18:54:34.110;0;Mov;1;1495;9,96;3,854561181981872;-2,148600821710868;-8,818116359447005;-2,148600821710868;3,854561181981872;-8,818116359447005;-36,83584093752861;8,667256691183203;-56,855983153782766
18:54:34.131;0;Wrist;1;1466;9,96;1,9500106814783167;1,592309311769463;2,752745235297708;1,592309311769463;1,9500106814783167;2,752745235297708;-70,95553453169347;181,85979796746727;-56,398205511642814
18:54:34.131;0;Wrist;1;1467;9,96;2,7336039307840205;1,7645802179021577;3,779192623294778;1,7645802179021577;2,7336039307840205;3,779192623294778;-80,5078279976806;201,1474959562975;-61,83050019837031
18:54:34.131;0;Wrist;1;1468;9,96;3,4454176458021792;2,1043368232520523;4,962358756523331;2,1043368232520523;3,4454176458021792;4,962358756523331;-94,42426831873532;224,25000762962736;-71,19968260750144
18:54:34.131;0;Wrist;1;1469;9,96;4,288827173680837;2,3735100768303474;5,793805028687399;2,3735100768303474;4,288827173680837;5,793805028687399;-111,66722617267372;250,37385174108095;-83,71227149266029
18:54:34.131;0;Wrist;1;1470;9,96;4,895364429151281;2,923819839701529;6,2519975318155465;2,923819839701529;4,895364429151281;6,2519975318155465;-128,1777397991882;279,2748802148503;-99,12411877803888
18:54:34.171;0;Mov;1;1496;9,91;3,2791284867397077;-1,3913266872920926;-9,046614162114322;-1,3913266872920926;3,2791284867397077;-9,046614162114322;-23,316141239661857;13,763847773674733;-90,24323252052369
18:54:34.171;0;Mov;1;1497;9,91;8,534587008270517;-8,279769852290414;-14,493484298226875;-8,279769852290414;8,534587008270517;-14,493484298226875;-22,91940061647389;21,942808313241983;-116,88589129306925
18:54:34.171;0;Mov;1;1498;9,91;12,31497581408124;-30,451271477401043;4,616620284890286;-30,451271477401043;12,31497581408124;4,616620284890286;4,913480025635548;100,13122959074678;-93,60026856288339
18:54:34.171;0;Mov;1;1499;9,91;-21,947788552507095;-32,634567552720725;30,48955504013184;-32,634567552720725;-21,947788552507095;30,48955504013184;280,4345835749382;149,69328897976624;201,84942167424543
18:54:34.171;0;Mov;1;1500;9,91;-9,827814569536423;29,81123729667043;-6,056996654408398;29,81123729667043;-9,827814569536423;-6,056996654408398;169,4692831202124;-48,76857814264351;340,61708426160465
18:54:34.191;0;Wrist;1;1471;9,84;3,309036626026185;2,7862423989837337;6,4170902699362165;2,7862423989837337;3,309036626026185;6,4170902699362165;-139,1949217200232;310,0680562761315;-114,47492904446547
18:54:34.191;0;Wrist;1;1472;9,84;-0,6137150062372204;0;12,01828726310007;-0,19021577480296487;-0,6137150062372204;12,01828726310007;-144,19995727408673;340,43397320474867;-126,52974028748436
18:54:34.191;0;Wrist;1;1473;9,84;1,3386883383053072;-6,610895203253273;24,48878444776757;-6,610895203253273;1,3386883383053072;24,48878444776757;-135,9294412060915;323,8624225592822;-137,27225562303536
18:54:34.192;0;Wrist;1;1474;9,84;10,244135677663502;-4,321128154850917;27,729630802331613;-4,321128154850917;10,244135677663502;27,729630802331613;-116,97744682149724;235,66393017365033;-95,43137913144322
18:54:34.192;0;Wrist;1;1475;9,84;6,771202734458449;8,85759491256447;23,05319376201666;8,85759491256447;6,771202734458449;23,05319376201666;-95,40086062196723;126,74336985381633;-52,70546586504715
18:54:34.220;0;Wrist;1;1476;9,84;13,791240997039704;17,294082079531236;12,898782502212592;17,294082079531236;13,791240997039704;12,898782502212592;-94,42426831873532;71,26071962645345;-27,92443617053743
18:54:34.220;0;Wrist;1;1477;9,84;14,219526314584796;13,31271076845607;12,197736098818934;13,31271076845607;14,219526314584796;12,197736098818934;-81,08767967772454;57,52739036225471;7,782219916379284
18:54:34.220;0;Wrist;1;1478;9,84;11,086349261452071;10,807605594042787;13,74338797418134;10,807605594042787;11,086349261452071;13,74338797418134;-46,14398632770776;35,76769310586871;18,860438856166265
18:54:34.220;0;Wrist;1;1479;9,84;12,59013069551683;15,919504570146794;11,164110423596911;15,919504570146794;12,59013069551683;11,164110423596911;-11,322367015594958;6,0121463667714465;7,354960783715323
18:54:34.220;0;Wrist;1;1480;9,84;12,990899761955626;15,29980811487167;9,970177694021425;15,29980811487167;12,990899761955626;9,970177694021425;13,000885036774804;-26,673177282021545;10,43733024079104
18:54:34.228;0;Mov;1;1501;9,96;17,375432981353192;27,07763336588641;5,2219611194189275;27,07763336588641;17,375432981353192;5,2219611194189275;-12,146366771446882;65,09598071230201;12,237922299874874
18:54:34.228;0;Mov;1;1502;9,96;-12,770775475325784;-36,07400357066561;-1,690408080156865;-36,07400357066561;-12,770775475325784;-1,690408080156865;15,778069399090548;6,2868129520554215;-74,37360759300516
18:54:34.228;0;Mov;1;1503;9,96;-1,3638111514633626;-2,09117714659566;0;-2,09117714659566;-1,3638111514633626;-0,24046144582392345;47,090060121463665;21,05777153843806;51,88146610919523
18:54:34.228;0;Mov;1;1504;9,96;-0,7142063780823694;4,177569086275827;0,6328562511444441;4,177569086275827;-0,7142063780823694;0,6328562511444441;44,587542344431895;3,173924985503708;32,50221259193701
18:54:34.228;0;Mov;1;1505;9,96;-5,123862708670308;-8,106302644428846;0;-8,106302644428846;-5,123862708670308;0,33736382307275614;64,60768456068605;-14,282662434766687;30,060731833857233
18:54:34.259;0;Mov;1;1506;9,97;2,0002563077944275;1,296816943304239;0;1,296816943304239;2,0002563077944275;0,2009826989854503;77,1202734458449;-17,212439344462418;31,61717581713309
18:54:34.260;0;Mov;1;1507;9,97;0;0,5144199957274087;0;0,5144199957274087;0,2631916257209998;0,3672719623592334;58,62605670339061;-8,423108615375225;23,25510422070986
18:54:34.260;0;Mov;1;1508;9,97;0;-1,5037813148518326;0;-1,5037813148518326;0,32420423582605973;0,12800683316579944;46,113467818231754;-2,410962248603778;11,993774224066897
18:54:34.260;0;Mov;1;1509;9,97;0;0;0;-0,42349924633587144;-0,37205725868442335;-0,00837427881394343;38,57539597766045;-3,6317026276436657;13,36710715048677
18:54:34.260;0;Mov;1;1510;9,97;0;-1,4678915477080599;0;-1,4678915477080599;0,40675069429609056;-0,1315958128604999;35,37095248268074;-4,699850459303567;12,421033356730858
18:54:34.286;0;Wrist;1;1481;9,98;11,60076925717948;14,785388119144262;8,568083933530687;14,785388119144262;11,60076925717948;8,568083933530687;37,232581560716575;-65,126499221778;27,985473189489426
18:54:34.286;0;Wrist;1;1482;9,98;9,366033280434584;16,480580690939053;6,3070286034730065;16,480580690939053;9,366033280434584;6,3070286034730065;61,79998168889431;-101,80974761192664;45,10635700552385
18:54:34.286;0;Wrist;1;1483;9,98;6,974578081606494;15,029438917203283;5,988805906094546;15,029438917203283;6,974578081606494;5,988805906094546;79,3786431470687;-136,44825586718343;57,19168675801874
18:54:34.286;0;Wrist;1;1484;9,98;5,145396378215888;13,134458830530717;5,506686891537218;13,134458830530717;5,145396378215888;5,506686891537218;94,88204596087527;-178,04498428296762;64,88235114597003
18:54:34.286;0;Wrist;1;1485;9,98;4,01726155507065;11,446442876979889;4,560393269142735;11,446442876979889;4,01726155507065;4,560393269142735;110,62959685048982;-217,413861507004;70,07049775688955
18:54:34.318;0;Mov;1;1511;9,52;0,8146977499275185;0;0;-0,03708609495047418;0,8146977499275185;0,2667806203173162;28,168584246345407;-3,845332193975646;10,315256202887051
18:54:34.318;0;Mov;1;1512;9,52;0,8517838188001648;0;0;0,43306986878948334;0,8517838188001648;0,3864131774632252;19,165623950926236;2,7466658528397474;4,364146855067599
18:54:34.318;0;Mov;1;1513;9,52;0;0;0;-0,09211707347283471;0,06340525826765496;0,1674855800042726;10,925626392406995;9,857478560747094;1,9531846064638203
18:54:34.318;0;Mov;1;1514;9,52;0;0;0;-0,3744499217486343;0,009570604757942918;0,14236275194460127;6,4394054994354075;14,374217963194678;3,2349620044557024
18:54:34.318;0;Mov;1;1515;9,52;0;0;0;0,03349711525577372;0,04306772280776963;0,23806879766132846;3,448591570787683;18,55525376140629;5,188146610919523
18:54:34.370;0;Wrist;1;1486;9,72;2,103140402310251;9,521555604724265;4,165605830561235;9,521555604724265;2,103140402310251;4,165605830561235;125,52262947477645;-244,6668904690695;77,3033845027009
18:54:34.370;0;Wrist;1;1487;9,72;0;7,645716822565386;4,281649124881741;7,645716822565386;0,3828241828669088;4,281649124881741;138,64558854945525;-264,62599566637164;79,10397656178472
18:54:34.370;0;Wrist;1;1488;9,72;-1,0288399914548174;6,1455246513260295;3,9658192693868832;6,1455246513260295;-1,0288399914548174;3,9658192693868832;144,96292001098666;-280,0988799707022;79,31760612811671
18:54:34.370;0;Wrist;1;1489;9,72;-1,5564195446256905;4,001709036530656;4,680025826288644;4,001709036530656;-1,5564195446256905;4,680025826288644;141,85003204443495;-288,43043305764945;80,87405011139256
18:54:34.370;0;Wrist;1;1490;9,72;-1,360222246276742;0,9738090390102847;4,408459730826746;0,9738090390102847;-1,360222246276742;4,408459730826746;138,55403302102727;-300,30213324381236;91,2198248237556
18:54:34.372;0;Wrist;1;1491;9,71;-2,898696907330546;-2,328049657429731;4,01606513412885;-2,328049657429731;-2,898696907330546;4,01606513412885;141,75847651600697;-303,93383587145604;110,08026367992187
18:54:34.372;0;Wrist;1;1492;9,71;-5,116684659871212;-6,533134041108433;5,231532010101627;-6,533134041108433;-5,116684659871212;5,231532010101627;147,34336375011443;-302,1332438123722;131,5652943510239
18:54:34.372;0;Wrist;1;1493;9,71;-8,663789979247413;-10,563554795983764;5,086776520584735;-10,563554795983764;-8,663789979247413;5,086776520584735;142,2772911770989;-300,33265175328836;141,239661854915
18:54:34.372;0;Wrist;1;1494;9,71;-10,430763039033174;-13,787652211066012;2,3136937982573933;-13,787652211066012;-10,430763039033174;2,3136937982573933;124,30188909573657;-295,8464308603168;142,6129947813349
18:54:34.372;0;Wrist;1;1495;9,71;-12,32574217200232;-18,796668523209327;-0,9056184695158238;-18,796668523209327;-12,32574217200232;-0,9056184695158238;88,32056642353588;-281,07547227393417;121,92144535660879
18:54:34.377;0;Mov;1;1516;9,74;0;0;0;0,15911130398438214;0,1674855800042726;0,42828457246429336;1,098666341135899;26,21539963988159;6,561479537339396
18:54:34.377;0;Mov;1;1517;9,74;0;0;0,7309549599253823;0,3469344157231361;0,0119632557145909;0,7309549599253823;-3,204443494979705;38,453321939756464;8,789330729087192
18:54:34.377;0;Mov;1;1518;9,74;0;0;0,9869685964537492;0,27276224817461164;-0,09211707347283471;0,9869685964537492;-8,209479049043244;54,292428357799004;13,061922055726798
18:54:34.377;0;Mov;1;1519;9,74;0;0;1,376970708906827;0,14236275194460127;-0,06819056204365291;1,376970708906827;-12,421033356730858;74,28205206457717;17,181920834986418
18:54:34.378;0;Mov;1;1520;9,74;0;0;1,7729545684301278;0,13997008888039034;0,4857081879730369;1,7729545684301278;-13,885921811578722;99,24619281594286;18,921475875118258
18:54:34.407;0;Mov;1;1521;9,86;0;0,598162785729545;2,1450117973113194;0,598162785729545;-0,3361674915406507;2,1450117973113194;-16,20532853175451;129,45951719718008;19,98962370677816
18:54:34.407;0;Mov;1;1522;9,86;-0,5060457048059023;0;2,0421277027954954;0,2895108002143925;-0,5060457048059023;2,0421277027954954;-12,146366771446882;162,78572954496903;28,015991698965422
18:54:34.408;0;Mov;1;1523;9,86;-0,8170903533852657;0;1,9452254745628224;0,009570604757942918;-0,8170903533852657;1,9452254745628224;-7,9958494827112645;195,28794213690603;38,666951506088445
18:54:34.408;0;Mov;1;1524;9,86;-1,6329844050416578;0;2,0373424958800013;0,48211922317995237;-1,6329844050416578;2,0373424958800013;-5,676442762535478;224,9214148380993;52,613910336619156
18:54:34.408;0;Mov;1;1525;9,86;-1,902157658619953;0;2,4751977504043703;0,1770561875562685;-1,902157658619953;2,4751977504043703;-3,47911008026368;257,6372569963683;66,49983214819788
18:54:34.440;0;Wrist;1;1496;9,98;-13,74219203009125;-26,230634098330636;-3,2540055543687245;-26,230634098330636;-13,74219203009125;-3,2540055543687245;50,96591082491531;-251,71666615802485;107,82189397869809
18:54:34.440;0;Wrist;1;1497;9,98;-10,214227538377026;-30,718052842799157;-8,014185384685812;-30,718052842799157;-10,214227538377026;-8,014185384685812;29,99969481490524;-214,85030671102024;95,24826807458723
18:54:34.440;0;Wrist;1;1498;9,98;-8,443665692617573;-31,19179738761559;-12,311387028107546;-31,19179738761559;-8,443665692617573;-12,311387028107546;29,267250587481307;-162,90780358287302;60,8233893856624
18:54:34.440;0;Wrist;1;1499;9,98;-8,17568933683279;-31,61170728171636;-15,936253509628589;-31,61170728171636;-8,17568933683279;-15,936253509628589;35,706656086916716;-107,18100527970213;32,07495345927305
18:54:34.440;0;Wrist;1;1500;9,98;-7,559581667531358;-26,493825724051636;-17,34313295388653;-26,493825724051636;-7,559581667531358;-17,34313295388653;35,8592486342967;-53,437910092471085;11,749626148258919
18:54:34.468;0;Mov;1;1526;9,58;-2,3866695150608845;0,5993591470648824;3,4406324388866847;0,5993591470648824;-2,3866695150608845;3,4406324388866847;-2,533036286507767;298,0132450331126;86,09271523178808
18:54:34.468;0;Mov;1;1527;9,58;-3,2516129509109777;1,4535355693227943;4,591497829371013;1,4535355693227943;-3,2516129509109777;4,591497829371013;6,378368480483413;347,788933988464;107,66930143131809
18:54:34.468;0;Mov;1;1528;9,58;-3,923947874385815;2,070839659566027;5,464815496536149;2,070839659566027;-3,923947874385815;5,464815496536149;29,66399121066927;406,4149906918546;125,67522202215643
18:54:34.468;0;Mov;1;1529;9,58;-3,700235040208136;2,3244606330301827;6,316599017303995;2,3244606330301827;-3,700235040208136;6,316599017303995;65,52323984496597;468,2149723807489;139,46958830530716
18:54:34.468;0;Mov;1;1530;9,58;-2,816150538270211;1,7083529637287516;7,724674405652028;1,7083529637287516;-2,816150538270211;7,724674405652028;93,84441663869137;521,34769737846;155,18662068544572
18:54:34.491;0;Wrist;1;1501;9,94;-5,847639679403058;-19,528819009979554;-17,15530869472335;-19,528819009979554;-5,847639679403058;-17,15530869472335;26,429029206213567;-9,002960295419172;7,17184972685934
18:54:34.491;0;Wrist;1;1502;9,94;-5,585643997772149;-15,193334757530442;-16,977055803094576;-15,193334757530442;-5,585643997772149;-16,977055803094576;16,63258766441847;17,456587420270395;15,10666219061861
18:54:34.491;0;Wrist;1;1503;9,94;-8,277377010406811;-13,293569940794091;-17,2426412244026;-13,293569940794091;-8,277377010406811;-17,2426412244026;2,6245918149357585;40,13183996093631;22,644734031189916
18:54:34.491;0;Wrist;1;1504;9,94;-12,002734267708366;-19,41516808069094;-13,033967101046786;-19,41516808069094;-12,002734267708366;-13,033967101046786;-19,043549913022247;73,64116336558122;35,645619067964724
18:54:34.491;0;Wrist;1;1505;9,94;-7,060713713492233;-25,531981490524004;19,891306421094395;-25,531981490524004;-7,060713713492233;19,891306421094395;-75,44175542466506;101,99285866878262;24,01806695760979
18:54:34.521;0;Wrist;1;1506;9,83;7,4507159451582385;5,705276554918058;25,161120563371686;5,705276554918058;7,4507159451582385;25,161120563371686;-90,91463972899564;10,193182164983062;-51,36265144810327
18:54:34.521;0;Wrist;1;1507;9,83;-2,5732963995788447;39,19999923703726;-7,0798550180059205;39,19999923703726;-2,5732963995788447;-7,0798550180059205;16,388439588610492;103,91552476577044;-161,22928556169316
18:54:34.521;0;Wrist;1;1508;9,83;-0,9654347480887784;-12,46930124057741;4,569963682973723;-12,46930124057741;-0,9654347480887784;4,569963682973723;8,667256691183203;-21,362956633198035;94,18012024292733
18:54:34.521;0;Wrist;1;1509;9,83;0;-24,51031907101657;0,541935471949675;-24,51031907101657;-0,04426404688906713;0,541935471949675;17,3955504013184;-5,1576281014435255;-0,4882961516159551
18:54:34.521;0;Wrist;1;1510;9,83;1,1125827814569536;9,24281193731498;-1,216663177701651;9,24281193731498;1,1125827814569536;-1,216663177701651;15,045625171666616;41,016876735740226;-75,89953306680502
18:54:34.594;0;Mov;1;1531;9,75;-0,6185003323656423;0;10,265670300912504;0,10408032918742562;-0,6185003323656423;10,265670300912504;102,57271034882656;535,6608783227027;167,5466170232246
18:54:34.594;0;Mov;1;1532;9,75;1,7143345915860468;-4,121341593676565;14,363085383159886;-4,121341593676565;1,7143345915860468;14,363085383159886;97,56767479476302;476,42445142979216;149,81536301767022
18:54:34.594;0;Mov;1;1533;9,75;3,1606921121097447;-8,693698118533892;24,076052125614186;-8,693698118533892;3,1606921121097447;24,076052125614186;32,898953215124976;340,3729361857967;107,66930143131809
18:54:34.594;0;Mov;1;1534;9,75;-1,3494552922910246;-1,7370648012863552;31,449007385479295;-1,7370648012863552;-1,3494552922910246;31,449007385479295;1,6174810022278512;168,6758018738365;108,706930753502
18:54:34.595;0;Mov;1;1535;9,75;-9,18778038880581;9,661525887325663;19,425935392315438;9,661525887325663;-9,18778038880581;19,425935392315438;87,22190008239997;31,373027741325114;141,63640247810298
18:54:34.596;0;Mov;1;1536;9,75;-5,3487717253639335;11,21674913022248;10,463064020203253;11,21674913022248;-5,3487717253639335;10,463064020203253;107,39463484603412;-36,34754478591265;134,00677510910367
18:54:34.596;0;Mov;1;1537;9,75;-7,015253055665761;10,065883739738151;6,9733816606646934;10,065883739738151;-7,015253055665761;6,9733816606646934;50,050355540635394;-57,49687185277871;103,3356730857265
18:54:34.596;0;Mov;1;1538;9,75;-13,392864772484511;11,576842745750298;5,975646229438154;11,576842745750298;-13,392864772484511;5,975646229438154;28,47376934110538;-48,79909665211951;89,20560319833979
18:54:34.596;0;Mov;1;1539;9,75;-11,936936361278114;11,774236465041048;5,595214888454848;11,774236465041048;-11,936936361278114;5,595214888454848;19,959105197302165;-51,0574663533433;58,62605670339061
18:54:34.596;0;Mov;1;1540;9,75;-9,500021935178687;11,989575067903683;5,219568754387036;11,989575067903683;-9,500021935178687;5,219568754387036;1,9837031159398175;-63,20383312479019;19,165623950926236
18:54:34.611;0;Wrist;1;1511;10,08;2,4417005867183446;-2,2239693803979614;1,8866054977187414;-2,2239693803979614;2,4417005867183446;1,8866054977187414;7,812738425855281;3,2654805139316996;3,204443494979705
18:54:34.611;0;Wrist;1;1512;10,08;2,5374066324350717;-3,324588906140324;-0,5742362743003632;-3,324588906140324;2,5374066324350717;-0,5742362743003632;-1,3428144169438765;9,460737937559129;-1,4648884548478653
18:54:34.611;0;Wrist;1;1513;10,08;2,4393079832605977;0;0;0,09929502541142765;2,4393079832605977;0,0717795342875454;-2,380443739127781;1,4648884548478653;-20,783104953154087
18:54:34.611;0;Wrist;1;1514;10,08;2,2287545873134555;0;0,6783166109385967;-0,4426404614398633;2,2287545873134555;0,6783166109385967;-9,186071352275155;-0,3051850947599719;-16,84621723075045
18:54:34.611;0;Wrist;1;1515;10,08;0,7441145173688467;0,7094210519539476;0,7680410287980285;0,7094210519539476;0,7441145173688467;0,7680410287980285;-13,092440565202795;-0,3051850947599719;-15,86962492751854
18:54:34.618;0;Mov;1;1541;9,83;-8,49750034333323;12,224054498428297;4,688399819177832;12,224054498428297;-8,49750034333323;4,688399819177832;-20,99673451948607;-84,04797509689627;-10,22370067445906
18:54:34.618;0;Mov;1;1542;9,83;-5,582055211798456;11,595983573412274;4,090237033448286;11,595983573412274;-5,582055211798456;4,090237033448286;-49,77568895535142;-117,70989104892116;-27,558214056825463
18:54:34.618;0;Mov;1;1543;9,83;-3,0494340247047336;10,915274895474106;3,2875027180547503;10,915274895474106;-3,0494340247047336;3,2875027180547503;-76,26575518051699;-154,66780602435378;-28,13806573686941
18:54:34.618;0;Mov;1;1544;9,83;-3,4801112304300057;9,643581003753777;3,8079043416394542;9,643581003753777;-3,4801112304300057;3,8079043416394542;-94,30219428083133;-190,77120273445846;-15,167699209570605
18:54:34.618;0;Mov;1;1545;9,83;-6,10245683538316;8,310873935666981;1,1293313632999664;8,310873935666981;-6,10245683538316;1,1293313632999664;-89,38871425519578;-231,5744499038667;-19,226660969878232
18:54:34.670;0;Wrist;1;1516;10,07;0;0;0,5622730185857723;0,0346934430624752;0,19380473959604938;0,5622730185857723;-13,061922055726798;2,3499252296517836;-12,146366771446882
18:54:34.670;0;Wrist;1;1517;10,07;0;0;0,7776116214484085;0,22132023071993165;0,038282419031771674;0,7776116214484085;-10,742515335551012;6,256294442579424;-8,362071596423231
18:54:34.670;0;Wrist;1;1518;10,07;0,9283486792161321;0,6077333783799249;0,6400341807306131;0,6077333783799249;0,9283486792161321;0,6400341807306131;-8,270516067995239;9,094515823847164;-9,735404522843105
18:54:34.670;0;Wrist;1;1519;10,07;0,8039307959418012;0,818286714720603;0,6687460182882168;0,818286714720603;0,8039307959418012;0,6687460182882168;-8,239997558519242;12,329477828302865;-12,543107394634847
18:54:34.670;0;Wrist;1;1520;10,07;0,9044221677869503;0,9355266088023011;0,6819055757316813;0,9355266088023011;0,9044221677869503;0,6819055757316813;-9,277626880703146;18,127994628742332;-14,34369945371868
18:54:34.675;0;Wrist;1;1521;9,75;0,8529801205290384;0,8577654466574602;0,7859859123699149;0,8577654466574602;0,8529801205290384;0,7859859123699149;-11,902218695638904;25,42191839350566;-15,289773247474594
18:54:34.675;0;Wrist;1;1522;9,75;1,1831660140156255;1,1137790831858272;0,9367229701376385;1,1137790831858272;1,1831660140156255;0,9367229701376385;-15,564439832758568;35,09628589739677;-16,724143192846462
18:54:34.676;0;Wrist;1;1523;9,75;1,3805597333063753;0,8565691449285867;1,19632557145909;0,8565691449285867;1,3805597333063753;1,19632557145909;-20,75258644367809;47,51731925412763;-20,722067934202094
18:54:34.676;0;Wrist;1;1524;9,75;1,4930143608661153;0,5921811578722496;1,323136058191168;0,5921811578722496;1,4930143608661153;1,323136058191168;-27,344584490493485;62,34931485946226;-27,863399151585437
18:54:34.677;0;Wrist;1;1525;9,75;1,5145481496246223;0,7453108190977202;1,5994873605685598;0,7453108190977202;1,5145481496246223;1,5994873605685598;-34,7605822931608;79,47019867549669;-36,43910031434065
18:54:34.678;0;Mov;1;1546;9,83;-2,881948444700461;8,724802201910459;-0,8087161220702231;8,724802201910459;-2,881948444700461;-0,8087161220702231;-89,38871425519578;-249,18362987151707;-45,6556901760918
18:54:34.678;0;Mov;1;1547;9,83;0;7,85866306039613;1,1365092928861353;7,85866306039613;-0,417517618478576;1,1365092928861353;-109,43937498092593;-248,48170415356913;-69,88738670003357
18:54:34.678;0;Mov;1;1548;9,83;-2,070839659566027;5,8847253906369215;2,911856583986938;5,8847253906369215;-2,070839659566027;2,911856583986938;-118,77803888058108;-257,24051637318036;-89,0530106509598
18:54:34.678;0;Mov;1;1549;9,83;-1,6772485227134006;5,296133495590075;3,1212135589922787;5,296133495590075;-1,6772485227134006;3,1212135589922787;-106,87582018494217;-272,4082155827509;-114,81063264870144
18:54:34.678;0;Mov;1;1550;9,83;-1,2944243398464919;4,201495597705008;2,634308860667745;4,201495597705008;-1,2944243398464919;2,634308860667745;-94,6073793755913;-284,6766563921018;-148,44203009125033
18:54:34.707;0;Mov;1;1551;9,94;-1,331510408719138;2,2407178430280466;1,3099765007477036;2,2407178430280466;-1,331510408719138;1,3099765007477036;-82,73567918942838;-289,3765068514054;-184,20972319711905
18:54:34.708;0;Mov;1;1552;9,94;3,043452396847438;0;0;-0,47494126379055146;3,043452396847438;-0,03708609495047418;-88,44264046143986;-284,6461378826258;-214,27045503097628
18:54:34.708;0;Mov;1;1553;9,94;9,254775193029573;-4,635761589403973;1,749028057000946;-4,635761589403973;9,254775193029573;1,749028057000946;-123,47788933988464;-269,5394756920072;-220,6488235114597
18:54:34.708;0;Mov;1;1554;9,94;8,862379642628254;-9,221277314065981;5,700491348002563;-9,221277314065981;8,862379642628254;5,700491348002563;-137,15018158513138;-259,8651081881161;-185,03372295297098
18:54:34.708;0;Mov;1;1555;9,94;7,179149849696341;-13,154796555986206;4,4216194074831385;-13,154796555986206;7,179149849696341;4,4216194074831385;-111,75878170110173;-279,4579912717063;-141,88055055391095
18:54:34.744;0;Wrist;1;1526;10,01;1,296816943304239;0,7046357854319895;1,592309311769463;0,7046357854319895;1,296816943304239;1,592309311769463;-41,566209906308174;97,01834162419507;-44,190801721243936
18:54:34.744;0;Wrist;1;1527;10,01;1,203503501045259;0,6699423200170904;1,4654988250373853;0,6699423200170904;1,203503501045259;1,4654988250373853;-44,587542344431895;111,9724112674337;-51,54576250495926
18:54:34.744;0;Wrist;1;1528;10,01;0,6747276461455123;1,0180730374691;1,3662038741340372;1,0180730374691;0,6747276461455123;1,3662038741340372;-48,127689443647576;123,81359294412061;-57,466353343302714
18:54:34.744;0;Wrist;1;1529;10,01;0,881691958086642;0,525186949713126;1,2094851289025543;0,525186949713126;0,881691958086642;1,2094851289025543;-52,1866512039552;133,21329386272774;-60,182500686666465
18:54:34.744;0;Wrist;1;1530;10,01;0;0,9235633530877102;1,0611408534119693;0,9235633530877102;0,4809228916478469;1,0611408534119693;-55,33005767998291;140,75136570329906;-62,25775933103427
18:54:34.768;0;Mov;1;1556;9,95;8,161333239234596;-15,402691732535782;-0,9797906668675802;-15,402691732535782;8,161333239234596;-0,9797906668675802;-94,11908322397534;-291,84850611896115;-113,71196630756553
18:54:34.768;0;Mov;1;1557;9,95;4,705148758659627;-19,9678697317423;-4,194317548905912;-19,9678697317423;4,705148758659627;-4,194317548905912;-85,8790856654561;-265,81621753593555;-94,94308297982727
18:54:34.768;0;Mov;1;1558;9,95;1,2585345727027193;-25,47455710013123;-8,459218688009278;-25,47455710013123;1,2585345727027193;-8,459218688009278;-74,92294076357311;-233,4360789819025;-86,15375225074007
18:54:34.768;0;Mov;1;1559;9,95;1,5851313821832942;-26,325144199957276;-13,408416814172796;-26,325144199957276;1,5851313821832942;-13,408416814172796;-78,85982848597675;-193,88409070101017;-78,3715323343608
18:54:34.768;0;Mov;1;1560;9,95;1,343473664433729;-24,592865916928616;-16,281991027558213;-24,592865916928616;1,343473664433729;-16,281991027558213;-97,04886013367107;-139,1338847010712;-72,42042298654134
18:54:34.791;0;Wrist;1;1531;9,97;0,5503097628711814;1,1030122484130376;0,9606494815668203;1,1030122484130376;0,5503097628711814;0,9606494815668203;-56,00146488845485;145,7869197668386;-62,16620380260628
18:54:34.791;0;Wrist;1;1532;9,97;0,6962614945104831;0,9893612595179602;1,3398846400341808;0,9893612595179602;0,6962614945104831;1,3398846400341808;-56,97805719168676;152,74513992736595;-64,33301797540209
18:54:34.792;0;Wrist;1;1533;9,97;1,2405896891308328;1,4391797101504562;1,8423413800469985;1,4391797101504562;1,2405896891308328;1,8423413800469985;-59,7857600634785;162,48054445020904;-69,42960905789361
18:54:34.792;0;Wrist;1;1534;9,97;1,7597948917737358;1,6150395214697715;2,514676303521836;1,6150395214697715;1,7597948917737358;2,514676303521836;-66,2251655629139;173,80291146580402;-72,8476821192053
18:54:34.792;0;Wrist;1;1535;9,97;1,9189062404629658;1,6784448244422743;3,257594578768273;1,6784448244422743;1,9189062404629658;3,257594578768273;-76,50990325632496;189,82512894070254;-74,73982970671712
18:54:34.823;0;Wrist;1;1536;9,97;2,55176249160741;2,019397612308115;4,209869590594195;2,019397612308115;2,55176249160741;4,209869590594195;-89,63286233100375;211,73741874446853;-79,13449507126072
18:54:34.823;0;Wrist;1;1537;9,97;3,5016448999755854;2,9022859317300944;5,602392937253945;2,9022859317300944;3,5016448999755854;5,602392937253945;-107,08944975127415;238,50215155491807;-85,29923398541216
18:54:34.823;0;Wrist;1;1538;9,97;4,081863040559099;3,0243110923337504;6,508011108737449;3,0243110923337504;4,081863040559099;6,508011108737449;-129,6121097445601;266,9454023865474;-90,70101016266365
18:54:34.823;0;Wrist;1;1539;9,97;4,01606513412885;3,1259987659077733;6,743687437055574;3,1259987659077733;4,01606513412885;6,743687437055574;-151,55491805780207;297,7690969573046;-96,25537888729515
18:54:34.823;0;Wrist;1;1540;9,97;2,3292458399456772;2,795812812814722;7,4746424565874205;2,795812812814722;2,3292458399456772;7,4746424565874205;-163,97595141453291;333,29264198736536;-102,60322885830256
18:54:34.834;0;Mov;1;1561;9,99;2,0397350993377485;-22,679940946684162;-16,34420110171819;-22,679940946684162;2,0397350993377485;-16,34420110171819;-116,97744682149724;-83,6817529831843;-78,1579027680288
18:54:34.834;0;Mov;1;1562;9,99;4,959965914639729;-19,893698309274576;-14,922965559862057;-19,893698309274576;4,959965914639729;-14,922965559862057;-123,26425977355267;-36,774803918576616;-84,93301187170019
18:54:34.835;0;Mov;1;1563;9,99;7,449519524216437;-16,205425809503463;-13,264857745597705;-16,205425809503463;7,449519524216437;-13,264857745597705;-108,79848628193;-0,9460737937559129;-85,9096041749321
18:54:34.835;0;Mov;1;1564;9,99;7,789275891140477;-10,921256523331401;-10,898525955992309;-10,921256523331401;7,789275891140477;-10,898525955992309;-79,07345805230872;28,748435926389355;-89,0530106509598
18:54:34.835;0;Mov;1;1565;9,99;7,99025887325663;-9,412689405499435;-11,1844481490524;-9,412689405499435;7,99025887325663;-11,1844481490524;-35,27939695425275;42,909024323252055;-100,13122959074678
18:54:34.857;0;Mov;1;1566;9,83;14,757872821741387;-23,402521973326824;-4,717112014374218;-23,402521973326824;14,757872821741387;-4,717112014374218;48,9516891994995;78,95138401440474;-108,676412244026
18:54:34.857;0;Mov;1;1567;9,83;11,010980941190832;-36,25225455488754;19,037129581591234;-36,25225455488754;11,010980941190832;19,037129581591234;201,87994018372143;85,66545609912411;-32,227546006653036
18:54:34.857;0;Mov;1;1568;9,83;-26,504593035676137;-6,991326544236579;25,69348544267098;-6,991326544236579;-26,504593035676137;25,69348544267098;313,1809442426832;20,264290292062135;232,4900051881466
18:54:34.857;0;Mov;1;1569;9,83;1,587524104853969;39,19999923703726;1,0862636665700247;39,19999923703726;1,587524104853969;1,0862636665700247;128,5134434034242;4,699850459303567;287,3012482070376
18:54:34.857;0;Mov;1;1570;9,83;18,742833872493666;-1,0276436897259438;1,8626789862895596;-1,0276436897259438;18,742833872493666;1,8626789862895596;18,768883327738273;5,096591082491531;-65,18753624073
18:54:34.918;0;Mov;1;1571;9,96;-13,475411618396558;-35,965136417737355;-1,740653706472976;-35,965136417737355;-13,475411618396558;-1,740653706472976;23,80443739127781;3,204443494979705;-83,34604937894834
18:54:34.918;0;Mov;1;1572;9,96;0,5921811578722496;9,832600253303628;0;9,832600253303628;0,5921811578722496;0,20696432684274574;30,152287362285225;15,564439832758568;72,63405255287331
18:54:34.919;0;Mov;1;1573;9,96;-2,3747062593462935;4,262508297219764;0,9355266088023011;4,262508297219764;-2,3747062593462935;0,9355266088023011;26,764732810449537;7,354960783715323;21,118808557390057
18:54:34.919;0;Mov;1;1574;9,96;-1,6581072181997132;-7,874215102084414;0;-7,874215102084414;-1,6581072181997132;-0,11245460520731605;35,706656086916716;2,533036286507767;8,606219672231209
18:54:34.919;0;Mov;1;1575;9,96;-0,9726127372814112;2,5709037961210974;0;2,5709037961210974;-0,9726127372814112;0,415124985217597;38,91109958189642;-0,21362956633198035;22,61421552171392
18:54:34.940;0;Wrist;1;1541;10,19;-2,5326211870937225;-2,3304422608874784;14,023328539384137;-2,3304422608874784;-2,5326211870937225;14,023328539384137;-165,92913602099674;354,59456160161136;-112,0029297769097
18:54:34.940;0;Wrist;1;1542;10,19;2,2562701231421856;-9,952232810449537;22,21456991790521;-9,952232810449537;2,2562701231421856;22,21456991790521;-133,7626270332957;308,7557603686636;-110,81270790734581
18:54:34.940;0;Wrist;1;1543;10,19;5,467207861568041;-4,042384010589923;25,21256141850032;-4,042384010589923;5,467207861568041;25,21256141850032;-108,40174565874203;227,97326578569903;-66,16412854396191
18:54:34.940;0;Wrist;1;1544;10,19;4,684811033204138;8,108694532609027;22,246869945371866;8,108694532609027;4,684811033204138;22,246869945371866;-77,66960661641285;135,68529313028353;-56,917020172734766
18:54:34.940;0;Wrist;1;1545;10,19;13,185900639362773;12,829395809808648;14,999530777916807;12,829395809808648;13,185900639362773;14,999530777916807;-78,12738425855281;87,64915921506393;-49,62309640797143
18:54:34.942;0;Wrist;1;1546;9,95;12,070925016022217;8,803760261848812;14,306857890560625;8,803760261848812;12,070925016022217;14,306857890560625;-58,19879757072665;61,31168553727836;-24,14014099551378
18:54:34.942;0;Wrist;1;1547;9,95;12,032642406994842;7,697159108249153;14,202777375103;7,697159108249153;12,032642406994842;14,202777375103;-24,170659504989775;33,47880489516892;-25,940733054597615
18:54:34.942;0;Wrist;1;1548;9,95;14,007776497695852;11,958470984527116;11,706045716727195;11,958470984527116;14,007776497695852;11,706045716727195;0,7629627368999298;8,02636799218726;-29,57243568224128
18:54:34.942;0;Wrist;1;1549;9,95;13,169151699880977;12,52313589129307;10,269259086886196;12,52313589129307;13,169151699880977;10,269259086886196;22,644734031189916;-18,4942167424543;-18,402661214026306
18:54:34.942;0;Wrist;1;1550;9,95;12,143901448103275;13,350993377483444;8,08835776085696;13,350993377483444;12,143901448103275;8,08835776085696;47,02902310251167;-48,677022614215524;0,030518509475997192
18:54:34.980;0;Mov;1;1576;9,73;-1,3051911746192817;0;0;0,13757744071779535;-1,3051911746192817;-0,015552232615238368;45,045319986571855;0,21362956633198035;25,42191839350566
18:54:34.980;0;Mov;1;1577;9,73;-1,3685964775917845;-1,3327067104480117;0;-1,3327067104480117;-1,3685964775917845;-0,10527665326872311;51,72887356181524;-1,3428144169438765;25,025177770317697
18:54:34.980;0;Mov;1;1578;9,73;0;-0,9199743882946257;0;-0,9199743882946257;0,4498184208292642;-0,03708609495047418;53,80413220618305;-3,173924985503708;25,391399884029664
18:54:34.980;0;Mov;1;1579;9,73;1,3099765007477036;-1,4798548034226509;0;-1,4798548034226509;1,3099765007477036;0,04546037097036462;45,44206060975982;-1,8616290780358287;16,724143192846462
18:54:34.981;0;Mov;1;1580;9,73;0,6149113675725577;0;0;0,0478530228583636;0,6149113675725577;0,2679769220461898;32,319101535081025;1,8311105685598315;10,52888576921903
18:54:35.001;0;Wrist;1;1551;9,96;10,332664151432844;15,24477752006592;6,530741199224829;15,24477752006592;10,332664151432844;6,530741199224829;64,39405499435408;-76,41834772789697;18,616290780358288
18:54:35.001;0;Wrist;1;1552;9,96;8,304892307809686;14,808118686483352;5,808160649433882;14,808118686483352;8,304892307809686;5,808160649433882;79,01242103335673;-109,8666341135899;41,07791375469222
18:54:35.001;0;Wrist;1;1553;9,96;6,703012462996307;14,53176690725425;5,443281350138859;14,53176690725425;6,703012462996307;5,443281350138859;91,76915799432356;-147,25180822168645;61,76946317941832
18:54:35.001;0;Wrist;1;1554;9,96;4,9228797265541555;13,415595339823604;4,663277363658559;13,415595339823604;4,9228797265541555;4,663277363658559;103,39671010467849;-188,32972197637866;76,69301431318094
18:54:35.001;0;Wrist;1;1555;9,96;3,244434902111881;12,070925016022217;4,172783879360332;12,070925016022217;3,244434902111881;4,172783879360332;115,2073732718894;-219,06186101870784;83,92590105899228
18:54:35.008;0;Mov;1;1581;9,83;0;0;0;0,17346720786156805;0,10527665326872311;0,3026703874610889;23,59080782494583;8,117923520615253;7,232886745811334
18:54:35.008;0;Mov;1;1582;9,83;0;0;0;-0,17346720786156805;0,01674855762788686;0,2751548814355907;18,03643910031434;14,313180944242683;7,110812707907346
18:54:35.008;0;Mov;1;1583;9,83;0;0;0;-0,10527665326872311;0,2715659166425062;0,4294808741931669;12,787255470442824;20,966216010010072;8,636738181707205
