Frecuencia (Hz);100
time;timespan;canal;id;sample;gap;accX;accY;accZ;rawAccX;rawAccY;rawAccZ;rawGirX;rawGirY;rawGirZ
18:55:06.959;0;Wrist;1;2181;11,01;0;0,5239905883777887;0;0,5239905883777887;0,38760947919209876;0,1914120914334544;-0,8850367748039186;0,9460737937559129;-0,793481246375927
18:55:06.959;0;Wrist;1;2182;11,01;0;0;0;0,49049348429822687;0,38043154960592973;0,1890194432708594;-0,7629627368999298;0,7019257179479355;-0,7324442274239327
18:55:06.959;0;Wrist;1;2183;11,01;0;0,5204016235847041;0;0,5204016235847041;0,36846829389133884;0,19978636745334483;-0,8239997558519242;0,6714072084719382;-0,5798516800439466
18:55:06.959;0;Wrist;1;2184;11,01;0;0,5132236939985351;0;0,5132236939985351;0,3708609271523179;0,19260842296555986;-0,7324442274239327;0,45777764213995786;-0,45777764213995786
18:55:06.959;0;Wrist;1;2185;11,01;0;0,525186949713126;0;0,525186949713126;0,40316172950300605;0,1866267951082644;-0,6714072084719382;0,3051850947599719;-0,4272591326639607
18:55:06.960;0;Wrist;1;2186;10,11;0;0,5311685775704215;0;0,5311685775704215;0,3708609271523179;0,17346720786156805;-0,5493331705679495;0,27466658528397475;-0,24414807580797754
18:55:06.960;0;Wrist;1;2187;10,11;0;0,525186949713126;0;0,525186949713126;0,3816278513348033;0,17825251908837397;-0,5188146610919523;0,12207403790398877;-0,21362956633198035
18:55:06.960;0;Wrist;1;2188;10,11;0;0,527579612777337;0;0,527579612777337;0,39119847378841516;0,20457167868015075;-0,4272591326639607;0,12207403790398877;-0,15259254737998595
18:55:06.960;0;Wrist;1;2189;10,11;0;0,5036531013481551;0;0,5036531013481551;0,3900021422563097;0,19500107112815485;-0,4272591326639607;0,24414807580797754;-0,030518509475997192
18:55:06.960;0;Wrist;1;2190;10,11;0;0,515616357062746;0;0,515616357062746;0,39957273490668965;0,1890194432708594;-0,36622211371196634;0,27466658528397475;-0,15259254737998595
18:55:06.961;0;Mov;1;2211;10,92;0;0;0;-0,12202521275931195;0,058619954491657;-0,03947874311306917;0,061037018951994385;-0,8239997558519242;-0,4272591326639607
18:55:06.961;0;Mov;1;2212;10,92;0;0;0;-0,13039949623001038;0,0837427900021363;-0,01794488357188635;0;-0,8545182653279214;-0,5188146610919523
18:55:06.961;0;Mov;1;2213;10,92;0;0;0;-0,13039949623001038;0,038282419031771674;-0,01794488357188635;0;-1,098666341135899;-0,7324442274239327
18:55:06.961;0;Mov;1;2214;10,92;0;0;0;-0,10886562551261558;0,007177953801294938;-0,01794488357188635;-0,030518509475997192;-1,1902218695638904;-0,793481246375927
18:55:06.961;0;Mov;1;2215;10,92;0;0;0;-0,10886562551261558;0,02273018548518231;-0,019141209515885837;0,030518509475997192;-1,098666341135899;-0,6103701895199438
18:55:06.962;0;Mov;1;2216;10,02;0;0;0;-0,12082888867801446;-0,0011963255947428648;-0,026319163317180778;0,030518509475997192;-1,098666341135899;-0,7019257179479355
18:55:06.962;0;Mov;1;2217;10,02;0;0;0;-0,08733176969683676;0,019141209515885837;-0,025122837373181287;0;-1,098666341135899;-0,6714072084719382
18:55:06.962;0;Mov;1;2218;10,02;0;0;0;-0,1064729773500206;0,025122837373181287;-0,038282419031771674;0,030518509475997192;-1,2207403790398876;-0,640888698995941
18:55:06.962;0;Mov;1;2219;10,02;0;0;0;-0,1076693014313181;0,04546037097036462;-0,01794488357188635;0;-1,1291848506118962;-0,5188146610919523
18:55:06.962;0;Mov;1;2220;10,02;0;0;0;-0,08135014183954131;0,0466566987770661;-0,0239265114291818;0,09155552842799158;-1,1902218695638904;-0,4882961516159551
18:55:06.980;0;Wrist;1;2191;9,64;0;0,5383465071565905;0;0,5383465071565905;0,4390514966467788;0,18423414694566942;-0,21362956633198035;0,21362956633198035;-0,15259254737998595
18:55:06.980;0;Wrist;1;2192;9,64;0;0;0;0,48331555471205784;0,42349924633587144;0,1914120914334544;-0,27466658528397475;0,24414807580797754;-0,3051850947599719
18:55:06.980;0;Wrist;1;2193;9,64;0;0,5335612406346324;0;0,5335612406346324;0,35650503817674795;0,1866267951082644;-0,3967406231879635;0,4882961516159551;-0,5798516800439466
18:55:06.980;0;Wrist;1;2194;9,64;0;0,5072420661412397;0;0,5072420661412397;0,38043154960592973;0,2129459547000412;-0,27466658528397475;0,5188146610919523;-0,4272591326639607
18:55:06.980;0;Wrist;1;2195;9,64;0;0,5263832514419996;0;0,5263832514419996;0,39957273490668965;0,20337534714804528;-0,3357036042359691;0,6714072084719382;-0,36622211371196634
18:55:06.987;0;Mov;1;2221;9,65;0;0;0;-0,09809870133013016;0,03349711525577372;-0,0119632557145909;-0,030518509475997192;-1,0681478316599018;-0,5798516800439466
18:55:06.987;0;Mov;1;2222;9,65;0;0;0;-0,11365092928861355;0,0478530228583636;-0,007177953801294938;-0,12207403790398877;-1,0071108127079074;-0,6103701895199438
18:55:06.987;0;Mov;1;2223;9,65;0;0;0;-0,12561418500320445;0,03708609495047418;-0,0466566987770661;-0,12207403790398877;-1,098666341135899;-0,793481246375927
18:55:06.987;0;Mov;1;2224;9,65;0;0;0;-0,12202521275931195;0,015552232615238368;-0,031104465230476736;-0,09155552842799158;-1,1597033600878932;-0,9155552842799157
18:55:06.987;0;Mov;1;2225;9,65;0;0;0;-0,11604358490201651;0,04546037097036462;-0,021533861403884816;-0,09155552842799158;-1,281777397991882;-0,8239997558519242
18:55:07.040;0;Wrist;1;2196;9,82;0;0;0;0,49886777521973324;0,3971801016457106;0,17107455969897306;-0,3967406231879635;0,8239997558519242;-0,36622211371196634
18:55:07.040;0;Wrist;1;2197;9,82;0;0,5072420661412397;0;0,5072420661412397;0,3780388865417188;0,1818414838814585;-0,3967406231879635;0,8850367748039186;-0,45777764213995786
18:55:07.040;0;Wrist;1;2198;9,82;0;0,5036531013481551;0;0,5036531013481551;0,38402051439901425;0,19739371929074984;-0,3967406231879635;1,0071108127079074;-0,36622211371196634
18:55:07.040;0;Wrist;1;2199;9,82;0;0;0;0,4881008510372478;0,41871395001068146;0,1866267951082644;-0,4882961516159551;1,1597033600878932;-0,36622211371196634
18:55:07.041;0;Wrist;1;2200;9,82;0;0;0;0,49408247889454326;0,4474257577650533;0,20576799531064027;-0,5493331705679495;1,403851435895871;-0,5188146610919523
18:55:07.056;0;Mov;1;2226;9,94;0;0;0;-0,1387737722499008;0,0478530228583636;-0,01794488357188635;-0,12207403790398877;-1,3733329264198737;-0,9765923032319102
18:55:07.056;0;Mov;1;2227;9,94;0;0;0;-0,12322153684060945;0,040675070919770656;-0,028711815205179753;-0,030518509475997192;-1,5259254737998595;-1,0071108127079074
18:55:07.056;0;Mov;1;2228;9,94;0;0;0;-0,14475540010719626;0,117239908983314;-0,04546037097036462;-0,061037018951994385;-1,7090365306558428;-0,9460737937559129
18:55:07.056;0;Mov;1;2229;9,94;0;0;0;-0,14236275194460127;0,1507370279644917;-0,026319163317180778;-0,4272591326639607;-1,9837031159398175;-1,1291848506118962
18:55:07.056;0;Mov;1;2230;9,94;0;0;0;-0,117239908983314;0,09690236979802469;-0,025122837373181287;-0,7324442274239327;-2,2278511917477952;-1,4648884548478653
18:55:07.107;0;Wrist;1;2201;10,05;0;0,5060457048059023;0;0,5060457048059023;0,412732322153386;0,24046144582392345;-0,36622211371196634;1,7700735496078372;-0,7629627368999298
18:55:07.107;0;Wrist;1;2202;10,05;0;0,5072420661412397;0;0,5072420661412397;0,39957273490668965;0,2440504255186239;-0,27466658528397475;2,533036286507767;-0,9765923032319102
18:55:07.107;0;Wrist;1;2203;10,05;0;0;0;0,49408247889454326;0,34932707878734703;0,236872466129223;0,09155552842799158;3,2349620044557024;-1,1597033600878932
18:55:07.107;0;Wrist;1;2204;10,05;0;0,525186949713126;0;0,525186949713126;0,37684255500961333;0,22969452164143803;0,21362956633198035;3,9979247413556322;-1,1291848506118962
18:55:07.107;0;Wrist;1;2205;10,05;0;0;0;0,4773339268547624;0,3289895321512497;0,28472550388920254;0,24414807580797754;4,791405987731559;-1,1291848506118962
18:55:07.138;0;Mov;1;2231;10,37;0;0;0;-0,117239908983314;0,0705832102062479;-0,0119632557145909;-0,8239997558519242;-2,380443739127781;-1,586962492751854
18:55:07.138;0;Mov;1;2232;10,37;0;0;0;-0,13039949623001038;0,0239265114291818;-0,025122837373181287;-0,793481246375927;-2,5025177770317697;-1,8616290780358287
18:55:07.138;0;Mov;1;2233;10,37;0;0;0;-0,12441786092190694;-0,004785302378971459;-0,038282419031771674;-0,45777764213995786;-2,685628833887753;-1,9531846064638203
18:55:07.138;0;Mov;1;2234;10,37;0;0;0;-0,09092074194072924;-0,009570604757942918;-0,027515489261180266;-0,12207403790398877;-2,8992584002197335;-2,1057771538438064
18:55:07.138;0;Mov;1;2235;10,37;0;0;0;-0,1339884610230949;0,08733176969683676;-0,031104465230476736;0,030518509475997192;-2,9908139286477247;-2,288888210699789
18:55:07.140;0;Mov;1;2236;9,75;0;0;0;-0,14954069643238624;0,15671865582178715;-0,03947874311306917;0,12207403790398877;-3,0823694570757163;-2,3194067201757864
18:55:07.140;0;Mov;1;2237;9,75;0;0;0;-0,19260842296555986;0,12681051653530992;-0,03947874311306917;-0,12207403790398877;-3,173924985503708;-2,4414807580797753
18:55:07.140;0;Mov;1;2238;9,75;0;0;0;-0,14954069643238624;-0,01794488357188635;-0,019141209515885837;-0,09155552842799158;-3,357036042359691;-2,5940733054597613
18:55:07.140;0;Mov;1;2239;9,75;0;0;0;-0,11006195704472106;-0,03230079117447623;-0,03947874311306917;0,061037018951994385;-3,4180730613116856;-2,3499252296517836
18:55:07.140;0;Mov;1;2240;9,75;0;0;0;-0,1339884610230949;-0,015552232615238368;-0,0011963255947428648;0,24414807580797754;-3,357036042359691;-2,044740134891812
18:55:07.163;0;Wrist;1;2206;10,12;0;0,5204016235847041;0;0,5204016235847041;0,4569963802186651;0,3086520153183844;0,45777764213995786;5,951109347819452;-1,3428144169438765
18:55:07.163;0;Wrist;1;2207;10,12;0,5012604382839442;0,5168126587916196;0;0,5168126587916196;0,5012604382839442;0,29549242807168796;0,640888698995941;7,446516312143315;-1,8921475875118259
18:55:07.163;0;Wrist;1;2208;10,12;0,5012604382839442;0,5718436112361522;0;0,5718436112361522;0,5012604382839442;0,3182226079687643;0,4882961516159551;9,552293465987121;-2,8687398907437363
18:55:07.163;0;Wrist;1;2209;10,12;0;0,5634693799211097;0;0,5634693799211097;0,46297800807596057;0,3469344157231361;0;11,352885525070956;-3,7232581560716573
18:55:07.163;0;Wrist;1;2210;10,12;0;0,6208929954298532;0;0,6208929954298532;0,44024782817888425;0,37564622347750787;-0,8850367748039186;13,122959074678793;-4,66933194982757
18:55:07.191;0;Wrist;1;2211;9,86;0;0,6771203092097232;0;0,6771203092097232;0,3708609271523179;0,49049348429822687;-2,1362956633198036;14,923551133762627;-5,798516800439467
18:55:07.191;0;Wrist;1;2212;9,86;0,5670583447141941;0,7201880059396649;0;0,7201880059396649;0,5670583447141941;0,4498184208292642;-5,7374797814874725;16,05273598437452;-8,423108615375225
18:55:07.191;0;Wrist;1;2213;9,86;0;0,6232856584940641;0;0,6232856584940641;0,38760947919209876;0,3923948053205206;-8,362071596423231;17,365031891842403;-10,193182164983062
18:55:07.191;0;Wrist;1;2214;9,86;0;0;0;0,48929718256935334;0,2787438760319071;0,37684255500961333;-7,660145878475295;19,959105197302165;-9,277626880703146
18:55:07.191;0;Wrist;1;2215;9,86;0,5527024259353923;0,6292672863513596;0;0,6292672863513596;0,5527024259353923;0,1794488357188635;-8,270516067995239;22,431104464857935;-8,941923276467177
18:55:07.198;0;Mov;1;2241;9,85;0;0;0;-0,11604358490201651;0,04904935066506508;0,00598162785729545;0,9765923032319102;-2,9908139286477247;-1,4343699453718681
18:55:07.198;0;Mov;1;2242;9,85;0;0;0;-0,13039949623001038;0,13518479255520036;-0,05742363041035951;1,2512588885158848;-2,380443739127781;-1,3428144169438765
18:55:07.198;0;Mov;1;2243;9,85;0;0;0;-0,14954069643238624;0,09092074194072924;-0,06699423051154745;0,5493331705679495;-2,197332682271798;-1,6479995117038484
18:55:07.198;0;Mov;1;2244;9,85;0;0;0;-0,12082888867801446;0;-0,08972441785943175;-0,12207403790398877;-2,197332682271798;-1,8921475875118259
18:55:07.198;0;Mov;1;2245;9,85;0;0;0;0,014355907602589877;-0,06819056204365291;-0,04187139500106815;-0,21362956633198035;-2,2583697012237924;-1,7700735496078372
18:55:07.251;0;Wrist;1;2216;9,98;0,6531937977805414;0,7488998434972686;0;0,7488998434972686;0,6531937977805414;0,19978636745334483;-7,965330973235267;24,47584459974975;-8,819849238563188
18:55:07.251;0;Wrist;1;2217;9,98;0,6185003323656423;0,7572740748123111;0;0,7572740748123111;0,6185003323656423;0,3852168459311197;-7,110812707907346;26,85628833887753;-8,819849238563188
18:55:07.251;0;Wrist;1;2218;9,98;0;0;0;0,417517618478576;0,2009826989854503;0,37564622347750787;-7,660145878475295;29,389324625385296;-7,843256935331278
18:55:07.251;0;Wrist;1;2219;9,98;0;0;0;0,32300790429395426;0,46417433960806603;0,2787438760319071;-9,826960051271096;31,800286873989073;-7,873775444807276
18:55:07.251;0;Wrist;1;2220;9,98;0;0,541935471949675;0;0,541935471949675;0,3708609271523179;0,1292031646979049;-10,071108127079073;33,41776787621693;-8,14844203009125
18:55:07.258;0;Mov;1;2246;9,98;0;0;0;0,003588976900647469;-0,010766930701942408;-0,015552232615238368;0;-2,197332682271798;-1,3122959074678793
18:55:07.259;0;Mov;1;2247;9,98;0;0;0;-0,08254646592083881;-0,0717795342875454;-0,0346934430624752;-0,061037018951994385;-1,9531846064638203;-1,1597033600878932
18:55:07.259;0;Mov;1;2248;9,98;0;0;0;-0,0011963255947428648;-0,08254646592083881;-0,06340525826765496;0,061037018951994385;-1,8311105685598315;-0,9765923032319102
18:55:07.259;0;Mov;1;2249;9,98;0;0;0;0,08135014183954131;-0,13638112408730582;-0,04426404688906713;0,21362956633198035;-1,5564439832758568;-0,5798516800439466
18:55:07.259;0;Mov;1;2250;9,98;0;0;0;-0,1184362330646115;-0,038282419031771674;-0,03230079117447623;0,4272591326639607;-1,586962492751854;0,030518509475997192
18:55:07.281;0;Wrist;1;2221;9,76;0;0;0;0,4581927117507706;0,43546250205046233;0,13997008888039034;-8,270516067995239;33,600878933072906;-7,843256935331278
18:55:07.281;0;Wrist;1;2222;9,76;0,5622730185857723;0;0;0,3469344157231361;0,5622730185857723;0,10049134949272515;-6,927701651051363;33,6924344615009;-8,087405011139255
18:55:07.281;0;Wrist;1;2223;9,76;0,532364879299295;0;0;0,2739585499034852;0,532364879299295;0,09092074194072924;-5,981627857295449;33,448286385692924;-8,880886257515183
18:55:07.281;0;Wrist;1;2224;9,76;0;0;0;0,3888058107242042;0,40316172950300605;0,01794488357188635;-5,706961272011475;32,380138554033024;-10,040589617603077
18:55:07.281;0;Wrist;1;2225;9,76;0;0;0;0,39957273490668965;0,2799401777607807;0,014355907602589877;-4,272591326639607;30,396435438093203;-10,406811731315043
18:55:07.300;0;Mov;1;2251;9,9;0;0;0;-0,11604358490201651;0,00837427881394343;-0,02273018548518231;0,4882961516159551;-1,5564439832758568;0,45777764213995786
18:55:07.300;0;Mov;1;2252;9,9;0;0;0;-0,08254646592083881;-0,013159581658590389;-0,01794488357188635;0,8545182653279214;-1,5259254737998595;0,5493331705679495
18:55:07.301;0;Mov;1;2253;9,9;0;0;0;-0,08254646592083881;-0,04306772280776963;-0,0239265114291818;1,0071108127079074;-1,281777397991882;0,793481246375927
18:55:07.301;0;Mov;1;2254;9,9;0;0;0;-0,13518479255520036;-0,0466566987770661;-0,03708609495047418;1,403851435895871;-1,3428144169438765;1,1597033600878932
18:55:07.301;0;Mov;1;2255;9,9;0;0;0;-0,12441786092190694;-0,031104465230476736;-0,00598162785729545;1,8311105685598315;-1,6174810022278512;1,586962492751854
18:55:07.371;0;Wrist;1;2226;10,18;0;0;0;0,41871395001068146;0,0478530228583636;0;-3,5706656086916717;27,893917661061433;-9,582811975463118
18:55:07.371;0;Wrist;1;2227;10,18;0;0;0;0,36846829389133884;0;-0,09690236979802469;-3,7232581560716573;24,719992675557727;-7,72118289742729
18:55:07.371;0;Wrist;1;2228;10,18;0;0;0;0,48690451950514235;0,1184362330646115;-0,04187139500106815;-4,272591326639607;20,935697500534072;-5,554368724631489
18:55:07.371;0;Wrist;1;2229;10,18;0;0;0;0,49049348429822687;0,07776116214484084;0,0239265114291818;-4,852443006683553;17,242957853938414;-2,9297769096957307
18:55:07.371;0;Wrist;1;2230;10,18;0;0;0;0,43306986878948334;0,004785302378971459;-0,05144199882766007;-4,4557023834955904;13,58073671681875;-0,5188146610919523
18:55:07.378;0;Mov;1;2256;10,18;0;0;0;-0,14714804826979125;-0,025122837373181287;-0,003588976900647469;2,1362956633198036;-1,4648884548478653;1,8311105685598315
18:55:07.378;0;Mov;1;2257;10,18;0;0;0;-0,15552232428968168;0,020337535459885328;0,014355907602589877;2,9297769096957307;-1,0376293221839046;2,166814172795801
18:55:07.378;0;Mov;1;2258;10,18;0;0;0;-0,1411664204124958;-0,040675070919770656;-0,03230079117447623;3,7232581560716573;-0,3357036042359691;2,4414807580797753
18:55:07.378;0;Mov;1;2259;10,18;0;0;0;-0,09929502541142765;0,014355907602589877;-0,02273018548518231;3,9979247413556322;0;2,807702871791742
18:55:07.378;0;Mov;1;2260;10,18;0;0;0;-0,1411664204124958;0,003588976900647469;-0,01674855762788686;4,0284432508316295;0,21362956633198035;2,9602954191717274
18:55:07.400;0;Wrist;1;2231;9,98;0;0,5550950889996032;0;0,5550950889996032;0,13279214439260537;0,06819056204365291;-3,1434064760277107;10,498367259743034;1,5564439832758568
18:55:07.400;0;Wrist;1;2232;9,98;0;0;0;0,4223029446069979;0,19380473959604938;0,027515489261180266;-1,6785180211798456;7,904293954283273;3,6011841181676685
18:55:07.401;0;Wrist;1;2233;9,98;0;0;0;0,37564622347750787;0,3624866660340434;0,06220893046095347;-0,3051850947599719;6,0121463667714465;4,364146855067599
18:55:07.401;0;Wrist;1;2234;9,98;0;0,6065370766510514;0;0,6065370766510514;0,4462294560361797;0,17346720786156805;0,6103701895199438;4,608294930875576;3,967406231879635
18:55:07.401;0;Wrist;1;2235;9,98;0,5395428684919279;0;0;0,4474257577650533;0,5395428684919279;0,1292031646979049;1,403851435895871;2,8992584002197335;3,6011841181676685
18:55:07.441;0;Wrist;1;2236;9,9;0,5204016235847041;0;0;0,4809228916478469;0,5204016235847041;0,11006195704472106;1,8921475875118259;1,8005920590838342;2,380443739127781
18:55:07.442;0;Wrist;1;2237;9,9;0;0;0;0,4223029446069979;0,4964751121555223;0,2129459547000412;1,8311105685598315;0,9765923032319102;1,73955504013184
18:55:07.442;0;Wrist;1;2238;9,9;0;0;0;0,36487929929502244;0,20816065837485123;0,2751548814355907;1,0376293221839046;1,098666341135899;1,8311105685598315
18:55:07.442;0;Wrist;1;2239;9,9;0;0;0;0,478530228583636;0,2631916257209998;0,30027772439687794;0,8239997558519242;1,8005920590838342;2,4414807580797753
18:55:07.442;0;Wrist;1;2240;9,9;0;0,6089297397152623;0;0,6089297397152623;0,1543260076591922;0,4007690664387951;0,27466658528397475;2,838221381267739;3,6317026276436657
18:55:07.444;0;Mov;1;2261;10,32;0;0;0;-0,0933133975541322;-0,05144199882766007;0,0011963255947428648;4,058961760307627;0,640888698995941;3,0823694570757163
18:55:07.444;0;Mov;1;2262;10,32;0;0;0;-0,15552232428968168;-0,06101260637965598;-0,0011963255947428648;4,7303689687795645;1,1291848506118962;3,2654805139316996
18:55:07.444;0;Mov;1;2263;10,32;0;0;0;-0,08254646592083881;-0,117239908983314;0,003588976900647469;5,371257667775506;1,6174810022278512;3,5706656086916717
18:55:07.444;0;Mov;1;2264;10,32;0;0;0;-0,08493911408343378;-0,1315958128604999;-0,02990813928647725;6,0121463667714465;1,8005920590838342;3,8758507034516434
18:55:07.444;0;Mov;1;2265;10,32;0;0;0;-0,13039949623001038;-0,07656483806354335;-0,01674855762788686;6,500442518387402;1,4954069643238623;4,1810357982116155
18:55:07.445;0;Mov;1;2266;9,86;0;0;0;-0,013159581658590389;-0,020337535459885328;-0,009570604757942918;6,927701651051363;1,7700735496078372;4,425183874019593
18:55:07.445;0;Mov;1;2267;9,86;0;0;0;-0,0358897671437727;-0,03349711525577372;-0,00837427881394343;6,775109103671377;2,197332682271798;4,333628345591602
18:55:07.445;0;Mov;1;2268;9,86;0;0;0;0,038282419031771674;0;0,00837427881394343;6,347849971007416;2,7771843623157446;4,608294930875576
18:55:07.445;0;Mov;1;2269;9,86;0;0;0;0,117239908983314;-0,04187139500106815;0,025122837373181287;6,0121463667714465;3,6011841181676685;4,821924497207556
18:55:07.445;0;Mov;1;2270;9,86;0;0;0;0,22012391408944212;-0,009570604757942918;0,0957060457167272;5,798516800439467;5,035554063539537;5,4322946867275
18:55:07.491;0;Wrist;1;2241;9,89;0;0,6053407749221777;0;0,6053407749221777;0,1387737722499008;0,3864131774632252;-0,27466658528397475;4,303109836115604;5,279702139347514
18:55:07.491;0;Wrist;1;2242;9,89;0;0,5850032282860805;0;0,5850032282860805;0,17466353939367352;0,33975645633373514;-0,09155552842799158;5,615405743583484;7,080294198431349
18:55:07.491;0;Wrist;1;2243;9,89;0;0;0;0,42349924633587144;0,13039949623001038;0,32779320061914424;0,030518509475997192;6,683553575243385;8,48414563432722
18:55:07.491;0;Wrist;1;2244;9,89;0;0;0;0,44862208929715874;0,25720999786370435;0,3050630207220679;0,45777764213995786;8,117923520615253;9,216589861751151
18:55:07.491;0;Wrist;1;2245;9,89;0;0;0;0,4761375953226569;0,4019653979709006;0,35770133990562153;0,8239997558519242;9,613330484939116;9,33866389965514
18:55:07.502;0;Mov;1;2271;9,93;0;0;0;0,06101260637965598;0,0023926511894857296;0,07417218990094836;5,523850215155492;7,538071840571306;5,951109347819452
18:55:07.502;0;Mov;1;2272;9,93;0;0;0;0,16150395214697713;-0,04187139500106815;0,12681051653530992;5,096591082491531;10,010071108127079;6,653035065767388
18:55:07.502;0;Mov;1;2273;9,93;0;0;0;0,09211707347283471;0,01794488357188635;0,16509293184167761;5,005035554063539;13,397625659962767;7,751701406903287
18:55:07.502;0;Mov;1;2274;9,93;0;0;0;0,10527665326872311;-0,0717795342875454;0,236872466129223;4,547257911923582;17,578661458174384;9,002960295419172
18:55:07.502;0;Mov;1;2275;9,93;0;0;0;0,08254646592083881;-0,15193334459498123;0,33018586368335523;4,547257911923582;22,91940061647389;10,620441297647023
18:55:07.561;0;Mov;1;2276;10,01;0;0;0;0,11484726082071901;-0,29668875960379343;0,41871395001068146;5,279702139347514;29,78606524857326;12,604144413586841
18:55:07.561;0;Mov;1;2277;10,01;0;0;0,5347575423635059;0,03230079117447623;-0,37564622347750787;0,5347575423635059;7,354960783715323;38,11761833552049;14,709921567430646
18:55:07.561;0;Mov;1;2278;10,01;0;0;0,6687460182882168;-0,21414228623214668;-0,3947874385814997;0,6687460182882168;10,22370067445906;47,97509689626759;17,48710592974639
18:55:07.561;0;Mov;1;2279;10,01;0;0;0,8960478768654438;-0,18303781541356395;-0,4952788104266488;0,8960478768654438;14,221625415814692;60,45716727195044;20,905178991058076
18:55:07.561;0;Mov;1;2280;10,01;0;0;1,1149755041276284;-0,03708609495047418;-0,18064516725096896;1,1149755041276284;19,959105197302165;75,62486648152104;24,750511185033723
18:55:07.580;0;Wrist;1;2246;10,22;0;0,5586840537926878;0;0,5586840537926878;0,3816278513348033;0,40435806103511157;1,4648884548478653;11,505478072450941;8,48414563432722
18:55:07.580;0;Wrist;1;2247;10,22;0;0,7034394240966522;0;0,7034394240966522;0,4306772057252724;0,49408247889454326;2,6551103244117558;14,03851435895871;7,110812707907346
18:55:07.580;0;Wrist;1;2248;10,22;0;0,6137150062372204;0,5048494030770287;0,6137150062372204;0,3935911070493942;0,5048494030770287;3,69273964659566;16,541032135990477;5,951109347819452
18:55:07.580;0;Wrist;1;2249;10,22;0;0,5132236939985351;0;0,5132236939985351;0,29668875960379343;0,39119847378841516;4,333628345591602;19,043549913022247;4,852443006683553
18:55:07.580;0;Wrist;1;2250;10,22;0;0;0;0,43665883358256785;0,16868191153637807;0,3708609271523179;5,1576281014435255;20,99673451948607;4,486220892971588
18:55:07.582;0;Wrist;1;2251;9,83;0;0;0;0,35770133990562153;0,26438795725310527;0,40316172950300605;5,371257667775506;22,91940061647389;4,974517044587542
18:55:07.582;0;Wrist;1;2252;9,83;0,5383465071565905;0;0,5706473095072787;0,415124985217597;0,5383465071565905;0,5706473095072787;4,8829615161595505;25,97125156407361;5,279702139347514
18:55:07.582;0;Wrist;1;2253;9,83;0,7788079827837459;0,6866909018601032;0,7429182156399732;0,6866909018601032;0,7788079827837459;0,7429182156399732;3,3875545518356884;30,915250099185155;3,9063692129276406
18:55:07.582;0;Wrist;1;2254;9,83;0,7130100763534959;0,6950651927816095;0,7488998434972686;0,6950651927816095;0,7130100763534959;0,7488998434972686;1,098666341135899;36,469618823816646;1,6174810022278512
18:55:07.582;0;Wrist;1;2255;9,83;0,5933775192075869;0,6890835649243141;0,6663533552240058;0,6890835649243141;0,5933775192075869;0,6663533552240058;-0,6714072084719382;41,688283944212166;-0,6103701895199438
18:55:07.587;0;Mov;1;2281;9,82;0;0;1,4726767546235542;0,2512283700064089;-0,35770133990562153;1,4726767546235542;24,68947416608173;93,90545365764336;28,412732322153385
18:55:07.587;0;Mov;1;2282;9,82;-1,074300410855434;0;1,902157658619953;0,49049348429822687;-1,074300410855434;1,902157658619953;31,373027741325114;115,72618793298135;33,845027008880884
18:55:07.588;0;Mov;1;2283;9,82;-1,2884427119891964;0;2,371117234946745;0,43187353725737787;-1,2884427119891964;2,371117234946745;42,237617114780114;140,01892147587512;38,453321939756464
18:55:07.588;0;Mov;1;2284;9,82;-1,3937192907498397;0,7812005862414929;2,9010895107882932;0,7812005862414929;-1,3937192907498397;2,9010895107882932;55,75731681264687;167,05832087160863;42,78695028534806
18:55:07.588;0;Mov;1;2285;9,82;-1,723905124629963;0,9797906668675802;3,2121341593676567;0,9797906668675802;-1,723905124629963;3,2121341593676567;71,8100527970214;195,10483108005005;47,853022858363595
18:55:07.641;0;Wrist;1;2256;9,91;0;0,515616357062746;0;0,515616357062746;0,41153599062128055;0,4270882409321879;-2,685628833887753;45,10635700552385;-1,9531846064638203
18:55:07.642;0;Wrist;1;2257;9,91;0;0;0;0,41871395001068146;0,23208716980403302;0,2548173646027253;-3,69273964659566;46,021912289803765;-1,9531846064638203
18:55:07.642;0;Wrist;1;2258;9,91;0;0;0;0,4390514966467788;0,13039949623001038;0,14595171673768578;-3,6011841181676685;45,13687551499985;-1,1291848506118962
18:55:07.642;0;Wrist;1;2259;9,91;0;0;0;0,3182226079687643;0,236872466129223;0,08493911408343378;-3,051850947599719;42,909024323252055;0,12207403790398877
18:55:07.642;0;Wrist;1;2260;9,91;0;0;0;0,34932707878734703;0,38760947919209876;0,020337535459885328;-2,2278511917477952;40,406506546220285;0,45777764213995786
18:55:07.648;0;Mov;1;2286;9,91;-1,7430464291436507;0;3,5566759716330454;0,4546037171544542;-1,7430464291436507;3,5566759716330454;89,1445661793878;223,36497085482344;53,10220648823511
18:55:07.648;0;Mov;1;2287;9,91;-1,8985687534333324;0,5515061242065188;4,152446153904843;0,5515061242065188;-1,8985687534333324;4,152446153904843;107,5472273934141;249,76348155156103;59,7857600634785
18:55:07.649;0;Mov;1;2288;9,91;-1,9571887302774134;0,9283486792161321;4,788891548661764;0,9283486792161321;-1,9571887302774134;4,788891548661764;125,67522202215643;270,3939939573351;66,56086916714987
18:55:07.649;0;Mov;1;2289;9,91;-1,6999786132007813;1,057551829012421;4,9061312639240695;1,057551829012421;-1,6999786132007813;4,9061312639240695;140,1104770043031;280,83132419812614;68,33094271675772
18:55:07.649;0;Mov;1;2290;9,91;-1,1987182941297647;1,0707113864558855;6,64080334253975;1,0707113864558855;-1,1987182941297647;6,64080334253975;137,57744071779535;280,70925016022215;64,54664754173406
18:55:07.700;0;Wrist;1;2261;9,98;0;0;0;0,37205725868442335;0,44144412990775783;0,014355907602589877;-1,5564439832758568;36,80532242805261;0,8239997558519242
18:55:07.700;0;Wrist;1;2262;9,98;0,5024567400128178;0;0;0,18064516725096896;0,5024567400128178;-0,117239908983314;-0,7629627368999298;32,71584215826899;0,8545182653279214
18:55:07.701;0;Wrist;1;2263;9,98;0,5718436112361522;0;0;0,16030763551648763;0,5718436112361522;-0,05503097852236053;-0,18311105685598317;28,565324869533374;-0,12207403790398877
18:55:07.701;0;Wrist;1;2264;9,98;0,6723349830813014;0;0;0,26438795725310527;0,6723349830813014;0,08015381775824382;-0,24414807580797754;25,45243690298166;-2,044740134891812
18:55:07.701;0;Wrist;1;2265;9,98;0,7465071804330576;0;0;0,32540056735816525;0,7465071804330576;0,34573808419103064;-1,098666341135899;23,987548448133793;-3,9979247413556322
18:55:07.710;0;Mov;1;2291;10;-1,9045503812906277;0,9666311094241157;9,331339457380901;0,9666311094241157;-1,9045503812906277;9,331339457380901;126,52974028748436;256,08081301309244;52,70546586504715
18:55:07.710;0;Mov;1;2292;10;-3,8832729003265483;1,709549265457625;13,288784257026887;1,709549265457625;-3,8832729003265483;13,288784257026887;89,23612170781578;197,08853419598987;27,741325113681448
18:55:07.710;0;Mov;1;2293;10;-4,672847777489547;8,871951010162663;13,114121105075228;8,871951010162663;-4,672847777489547;13,114121105075228;42,11554307687612;109,59196752830591;6,164738914151433
18:55:07.710;0;Mov;1;2294;10;-10,600641460921048;16,926810892056032;7,061910134434034;16,926810892056032;-10,600641460921048;7,061910134434034;44,5265053254799;43,671987060151984;-4,0284432508316295
18:55:07.710;0;Mov;1;2295;10;-10,497756889553514;16,21021149327067;5,450459398937956;16,21021149327067;-10,497756889553514;5,450459398937956;37,018951994384594;19,34873500778222;-38,17865535447249
18:55:07.730;0;Wrist;1;2266;9,84;0,8828882598155157;0;0;0,45221108389347514;0,8828882598155157;0,4976714436876278;-3,3875545518356884;25,45243690298166;-6,164738914151433
18:55:07.730;0;Wrist;1;2267;9,84;0,6795129126674703;0;0,5383465071565905;0,41632131674970246;0,6795129126674703;0,5383465071565905;-6,775109103671377;27,95495468001343;-8,514664143803216
18:55:07.730;0;Wrist;1;2268;9,84;0,5682546464430677;0;0,5503097628711814;0,3935911070493942;0,5682546464430677;0,5503097628711814;-8,972441785943175;30,88473158970916;-9,857478560747094
18:55:07.730;0;Wrist;1;2269;9,84;0,6173040306367688;0;0,5838068669507431;0,47494126379055146;0,6173040306367688;0,5838068669507431;-10,559404278695029;34,11969359416486;-10,467848750267036
18:55:07.730;0;Wrist;1;2270;9,84;0,5467207980780968;0;0,6316598898091067;0,4546037171544542;0,5467207980780968;0,6316598898091067;-12,39051484725486;37,842951750236516;-11,139255958738975
18:55:07.738;0;Mov;1;2296;9,84;-6,1766292115543076;13,42277291177099;7,291604358043153;13,42277291177099;-6,1766292115543076;7,291604358043153;-0,18311105685598317;-9,949034089175084;-73,61064485610522
18:55:07.738;0;Mov;1;2297;9,84;-7,195898312326426;14,942106387524033;5,738773957029939;14,942106387524033;-7,195898312326426;5,738773957029939;-12,665181432538835;-48,310800500503554;-76,41834772789697
18:55:07.738;0;Mov;1;2298;9,84;-5,887118232520524;15,019867549668874;4,721897221289712;15,019867549668874;-5,887118232520524;4,721897221289712;-28,504287850581377;-82,03375347148045;-75,86901455732902
18:55:07.738;0;Mov;1;2299;9,84;-6,182610839411603;13,108139477217932;4,963554700613422;13,108139477217932;-6,182610839411603;4,963554700613422;-43,09213538010803;-111,33152256843776;-76,29627368999299
18:55:07.738;0;Mov;1;2300;9,84;-7,384918038727989;11,807733390301218;4,688399819177832;11,807733390301218;-7,384918038727989;4,688399819177832;-51,789910580767234;-143,4064760277108;-80,72145756401257
18:55:07.790;0;Wrist;1;2271;9,91;0,5467207980780968;0,5359538440923796;0,8529801205290384;0,5359538440923796;0,5467207980780968;0,8529801205290384;-14,89303262428663;42,57332071901608;-11,505478072450941
18:55:07.791;0;Wrist;1;2272;9,91;0,5802179021576587;0,598162785729545;0,9415082366595966;0,598162785729545;0,5802179021576587;0,9415082366595966;-18,18903164769433;49,653614917447435;-11,017181920834986
18:55:07.791;0;Wrist;1;2273;9,91;0,7512924469550157;0;1,2728904318750571;0,45580004868655966;0,7512924469550157;1,2728904318750571;-21,08829004791406;58,16827906125065;-11,352885525070956
18:55:07.791;0;Wrist;1;2274;9,91;1,08387094389935;0,7776116214484085;1,6329844050416578;0,7776116214484085;1,08387094389935;1,6329844050416578;-24,170659504989775;71,29123813592945;-14,313180944242683
18:55:07.791;0;Wrist;1;2275;9,91;1,1819697122867519;0,8338389352282785;1,8650715897473067;0,8338389352282785;1,1819697122867519;1,8650715897473067;-28,229621265297403;87,55760368663594;-19,5623645741142
18:55:07.810;0;Mov;1;2301;10;-7,919675283059175;10,266866245002594;4,0782737777336955;10,266866245002594;-7,919675283059175;4,0782737777336955;-57,49687185277871;-173,25357829523605;-94,36323129978332
18:55:07.811;0;Mov;1;2302;10;-8,635077784051028;8,724802201910459;3,2635762066255682;8,724802201910459;-8,635077784051028;3,2635762066255682;-57,28324228644673;-196,7833491012299;-117,06900234992523
18:55:07.811;0;Mov;1;2303;10;-8,416150395214698;6,318991859187597;2,61756039803766;6,318991859187597;-8,416150395214698;2,61756039803766;-54,84176152836695;-214,1483809930723;-147,61803033539843
18:55:07.811;0;Mov;1;2304;10;-7,4303782197027495;2,5039094687490464;1,2716941301461837;2,5039094687490464;-7,4303782197027495;1,2716941301461837;-53,71257667775506;-226,84408093508713;-177,2209845271157
18:55:07.811;0;Mov;1;2305;10;-6,4481948301644945;-0,5706473095072787;0;-0,5706473095072787;-6,4481948301644945;-0,36009400296983246;-57,43583483382672;-227,1797845393231;-195,16586809900204
18:55:07.857;0;Wrist;1;2276;10,02;1,2633197796182134;0,9785943651387067;2,1677418877987;0,9785943651387067;1,2633197796182134;2,1677418877987;-32,776879177220984;106,35700552385022;-25,54399243140965
18:55:07.857;0;Wrist;1;2277;10,02;1,4260201527069918;1,0826746421704765;2,35436877231666;1,0826746421704765;1,4260201527069918;2,35436877231666;-39,03317361980041;127,2621845149083;-31,983397930845058
18:55:07.857;0;Wrist;1;2278;10,02;1,416449500450148;1,1903439436017944;2,64507593386639;1,1903439436017944;1,416449500450148;2,64507593386639;-46,26606036561174;149,84588152714622;-39,429914242988374
18:55:07.857;0;Wrist;1;2279;10,02;1,2728904318750571;1,292031617175817;2,8556290913876765;1,292031617175817;1,2728904318750571;2,8556290913876765;-53,132724997711115;174,62691122165594;-47,30368968779565
18:55:07.857;0;Wrist;1;2280;10,02;1,4702841511658071;1,2752830353328044;2,7336039307840205;1,2752830353328044;1,4702841511658071;2,7336039307840205;-59,66368602557451;200,1098666341136;-54,93331705679495
18:55:07.858;0;Mov;1;2306;9,98;-7,778509056367687;-3,719376344721824;0;-3,719376344721824;-7,778509056367687;0,1387737722499008;-72,66457106234931;-216,5593432416761;-206,79342020935698
18:55:07.858;0;Mov;1;2307;9,98;-6,994915807061983;-6,697030835139012;-2,2897672868282113;-6,697030835139012;-6,994915807061983;-2,2897672868282113;-84,38367870113224;-209,69267860957672;-221,8085268715476
18:55:07.858;0;Mov;1;2308;9,98;0,9104037956442458;-10,269259086886196;0;-10,269259086886196;0,9104037956442458;-0,12322153684060945;-116,58070619830927;-188,60438856166266;-231,4523758659627
18:55:07.858;0;Mov;1;2309;9,98;2,500320444349498;-17,119418927579577;1,4690878494369335;-17,119418927579577;2,500320444349498;1,4690878494369335;-120,7922605059969;-178,07550279244361;-192,5412762840663
18:55:07.858;0;Mov;1;2310;9,98;3,6105106223487047;-19,992994094668415;-2,9202308153019807;-19,992994094668415;3,6105106223487047;-2,9202308153019807;-111,42307809686575;-184,60646382030703;-138,21832941679128
18:55:07.880;0;Wrist;1;2281;9,86;1,3362957348475601;1,3889339646214178;2,7467636074404127;1,3889339646214178;1,3362957348475601;2,7467636074404127;-65,55375835444197;224,34156315805535;-63,0512405774102
18:55:07.880;0;Wrist;1;2282;9,86;1,3255287808618428;1,3685964775917845;2,77667174672689;1,3685964775917845;1,3255287808618428;2,77667174672689;-71,19968260750144;247,35251930295723;-72,93923764763329
18:55:07.881;0;Wrist;1;2283;9,86;1,616235823198645;1,4583208954512161;2,751548814355907;1,4583208954512161;1,616235823198645;2,751548814355907;-75,0144962920011;270,14984588152714;-83,04086428418836
18:55:07.881;0;Wrist;1;2284;9,86;1,4846400103381452;1,4128604760505996;2,7838495571001314;1,4128604760505996;1,4846400103381452;2,7838495571001314;-75,96057008575701;291,90954313791315;-93,26456495864743
18:55:07.881;0;Wrist;1;2285;9,86;1,5492416150395214;1,6856227540284432;3,1451400704214607;1,6856227540284432;1,5492416150395214;3,1451400704214607;-75,56382946256905;315,80553605761895;-102,69478438673055
18:55:07.887;0;Mov;1;2311;9,85;3,8760948515274514;-20,619867168187504;-6,186199625385296;-20,619867168187504;3,8760948515274514;-6,186199625385296;-115,08529923398541;-164,0064699240089;-84,99404889065218
18:55:07.887;0;Mov;1;2312;9,85;2,2299510082552567;-22,45742477187414;-8,931767288735617;-22,45742477187414;2,2299510082552567;-8,931767288735617;-123,63048188726462;-132,96914578691977;-50,08087405011139
18:55:07.888;0;Mov;1;2313;9,85;4,788891548661764;-21,945396664326914;-10,729844431897947;-21,945396664326914;4,788891548661764;-10,729844431897947;-133,57951597643972;-97,59819330423902;-24,292733542893764
18:55:07.888;0;Mov;1;2314;9,85;6,571416650135808;-19,750139240699486;-11,0528523361919;-19,750139240699486;6,571416650135808;-11,0528523361919;-136,08203375347148;-56,4897610400708;2,5025177770317697
18:55:07.888;0;Mov;1;2315;9,85;7,305960455641347;-16,728221228675192;-11,907028221991638;-16,728221228675192;7,305960455641347;-11,907028221991638;-125,85833307901243;-19,714957121494187;18,70784630878628
18:55:07.940;0;Wrist;1;2286;9,92;1,780132498016297;2,1174962614825894;3,3293741130558185;2,1174962614825894;1,780132498016297;3,3293741130558185;-73,58012634662923;344,79812005981626;-113,0405590990936
18:55:07.941;0;Wrist;1;2287;9,92;1,6569109164708395;2,2538775196844387;3,5686392273476364;2,2538775196844387;1,6569109164708395;3,5686392273476364;-80,53834650715659;375,71337015900144;-120,51759392071291
18:55:07.941;0;Wrist;1;2288;9,92;0;2,0816064943388164;3,739713831751457;2,0816064943388164;0,33257852674756616;3,739713831751457;-96,95730460524308;405,10269478438676;-128,02514725180822
18:55:07.941;0;Wrist;1;2289;9,92;-1,454731871051668;1,7920957537308877;5,024567400128178;1,7920957537308877;-1,454731871051668;5,024567400128178;-112,73537400433362;425,3669850764489;-132,11462752159184
18:55:07.941;0;Wrist;1;2290;9,92;-1,1101901779992065;-2,12945951719718;6,368041302987762;-2,12945951719718;-1,1101901779992065;6,368041302987762;-103,09152500991851;417,6152836695456;-126,34662923062838
18:55:07.947;0;Mov;1;2316;9,92;8,803760261848812;-13,633326784569842;-12,787524414807582;-13,633326784569842;8,803760261848812;-12,787524414807582;-110,75167088839382;21,027253028962065;15,564439832758568
18:55:07.947;0;Mov;1;2317;9,92;10,345823351237526;-11,641444708090457;-12,344883953367718;-11,641444708090457;10,345823351237526;-12,344883953367718;-97,10989715262306;67,3848689230018;4,058961760307627
18:55:07.947;0;Mov;1;2318;9,92;11,472762230292673;-9,309805787835321;-11,5684682760094;-9,309805787835321;11,472762230292673;-11,5684682760094;-88,71730704672383;107,33359782708213;-7,293923764763329
18:55:07.948;0;Mov;1;2319;9,92;12,002734267708366;-5,792608607745597;-10,737022003845333;-5,792608607745597;12,002734267708366;-10,737022003845333;-80,78249458296457;136,57032990508745;-17,456587420270395
18:55:07.948;0;Mov;1;2320;9,92;9,960607280190436;-4,756590567491684;5,609570509201331;-4,756590567491684;9,960607280190436;5,609570509201331;-27,92443617053743;172,18543046357615;-14,221625415814692
18:55:07.970;0;Wrist;1;2291;9,8;1,1807734105578784;-9,583764725180822;4,691989082003235;-9,583764725180822;1,1807734105578784;4,691989082003235;-90,88412121951964;364,8182622760704;-99,09360026856288
18:55:07.970;0;Wrist;1;2292;9,8;-0,9893612595179602;-13,549583994567705;6,268745994445632;-13,549583994567705;-0,9893612595179602;6,268745994445632;-99,67345194860683;279,91576891384625;-107,15048677022614
18:55:07.970;0;Wrist;1;2293;9,8;-5,396624748222297;-11,517026467177343;9,342106769005401;-11,517026467177343;-5,396624748222297;9,342106769005401;-87,64915921506393;207,6174199652089;-129,85625782036806
18:55:07.970;0;Wrist;1;2294;9,8;-0,710617413289285;-7,795257518997772;12,866481521042513;-7,795257518997772;-0,710617413289285;12,866481521042513;-52,58339182714316;145,11551255836665;-110,47700430310984
18:55:07.970;0;Wrist;1;2295;9,8;0;-6,1215981398968475;20,012134922330393;-6,1215981398968475;0,29190343347537157;20,012134922330393;-18,463698232978302;88,53419598986785;-109,31730094302195
18:55:08.008;0;Mov;1;2321;9,98;22,100918988616595;-6,054603812524796;25,984191412091434;-6,054603812524796;22,100918988616595;25,984191412091434;148,22840052491836;96,59108249153111;5,066072573015534
18:55:08.008;0;Mov;1;2322;9,98;17,058406704916532;1,2681051057466353;19,000043870357374;1,2681051057466353;17,058406704916532;19,000043870357374;229,1940061647389;-112,30811487166967;47,8225043488876
18:55:08.008;0;Mov;1;2323;9,98;-28,376842555009613;-6,771202734458449;2,913052766502884;-6,771202734458449;-28,376842555009613;2,913052766502884;179,72350230414747;-181,95135349589526;149,38810388500625
18:55:08.008;0;Mov;1;2324;9,98;-22,18107203894162;-12,811450926236763;4,281649124881741;-12,811450926236763;-22,18107203894162;4,281649124881741;135,8989226966155;-91,86071352275155;121,25003814813685
18:55:08.008;0;Mov;1;2325;9,98;35,26050218207343;18,49519333475753;6,171843527787103;18,49519333475753;35,26050218207343;6,171843527787103;74,28205206457717;-20,172734763634143;-31,61717581713309
18:55:08.030;0;Wrist;1;2296;9,87;-13,262465857417524;-2,5051058896908476;29,324333552049318;-2,5051058896908476;-13,262465857417524;29,324333552049318;79,13449507126072;35,37095248268074;-167,42454298532058
18:55:08.031;0;Wrist;1;2297;9,87;-3,021918488876003;-1,695193406285287;23,93967062898648;-1,695193406285287;-3,021918488876003;23,93967062898648;133,06070131534776;-38,36176641132847;-238,44111453596605
18:55:08.031;0;Wrist;1;2298;9,87;25,238881725516524;-4,6620809427167575;18,62559320352794;-4,6620809427167575;25,238881725516524;18,62559320352794;20,264290292062135;-89,63286233100375;-225,9590441602832
18:55:08.031;0;Wrist;1;2299;9,87;20,112626651814324;1,814825963431196;11,897457808160649;1,814825963431196;20,112626651814324;11,897457808160649;-48,9211706900235;-102,66426587725455;-78,52412488174078
18:55:08.031;0;Wrist;1;2300;9,87;16,699509033478805;7,398077715384381;12,740867336039308;7,398077715384381;16,699509033478805;12,740867336039308;-71,04709006012146;-92,4710837122715;30,4574724570452
18:55:08.038;0;Mov;1;2326;9,87;-3,2552019753105257;2,9010895107882932;0;2,9010895107882932;-3,2552019753105257;-0,3888058107242042;49,53154087954344;-0,15259254737998595;50,38605914487137
18:55:08.038;0;Mov;1;2327;9,87;-7,691177480391858;-15,725699636829738;-1,0659260603274636;-15,725699636829738;-7,691177480391858;-1,0659260603274636;51,026947843867305;11,871700186162908;16,357921079134496
18:55:08.038;0;Mov;1;2328;9,87;2,4357189588610493;4,989874053926206;0,6029481118579668;4,989874053926206;2,4357189588610493;0,6029481118579668;39,948728904080326;-0,7629627368999298;2,685628833887753
18:55:08.038;0;Mov;1;2329;9,87;-2,992010349589526;-2,0600725863673817;-0,5682546464430677;-2,0600725863673817;-2,992010349589526;-0,5682546464430677;39,24680318613239;-7,690664387951292;15,137180700094607
18:55:08.038;0;Mov;1;2330;9,87;-1,0467848750267037;-4,581926938688315;-0,874514028500473;-4,581926938688315;-1,0467848750267037;-0,874514028500473;45,99139378032777;-17,853328043458358;13,702810754722739
18:55:08.091;0;Wrist;1;2301;9,93;8,614741012298959;7,6397351947080905;15,423029457991271;7,6397351947080905;8,614741012298959;15,423029457991271;-65,98101748710593;-79,77538377025667;87,37449262977997
18:55:08.091;0;Wrist;1;2302;9,93;5,199231028931547;7,45310831019013;18,928264336069827;7,45310831019013;5,199231028931547;18,928264336069827;-31,800286873989073;-92,95937986388745;85,11612292855617
18:55:08.091;0;Wrist;1;2303;9,93;5,716043866542558;7,514121009704886;19,780047379985962;7,514121009704886;5,716043866542558;19,780047379985962;27,71080660420545;-143,5895870845668;63,38694418164617
18:55:08.091;0;Wrist;1;2304;9,93;9,08848555711539;7,7976503608813745;18,48562387462996;7,7976503608813745;9,08848555711539;18,48562387462996;80,90456862086856;-214,91134372997223;54,23139133884701
18:55:08.091;0;Wrist;1;2305;9,93;9,899594103823969;8,779833750419629;16,015211569566944;8,779833750419629;9,899594103823969;16,015211569566944;123,14218573564867;-294,3815424054689;67,78160954618977
18:55:08.097;0;Mov;1;2331;9,93;0;1,1018158274712364;0;1,1018158274712364;-0,3194189395008698;0,18543046357615894;42,3596911526841;-25,33036286507767;23,04147465437788
18:55:08.097;0;Mov;1;2332;9,93;0,7345439247184667;0;0;0,3505234103194525;0,7345439247184667;0,4510147523613697;37,87347025971251;-18,82992034669027;18,58577227088229
18:55:08.097;0;Mov;1;2333;9,93;0,7142063780823694;0,6220892971587267;0;0,6220892971587267;0,7142063780823694;0,39957273490668965;26,825769829401533;-6,653035065767388;16,113773003326518
18:55:08.097;0;Mov;1;2334;9,93;0;0;0;0,2596026609279153;0,20576799531064027;0,39957273490668965;16,998809778130436;5,279702139347514;12,604144413586841
18:55:08.097;0;Mov;1;2335;9,93;0;0;0;-0,020337535459885328;-0,1184362330646115;0,44862208929715874;10,467848750267036;16,144291512802514;12,451551866206854
18:55:08.120;0;Wrist;1;2306;9,82;9,727323793755913;10,567143581957458;10,061098055970946;10,567143581957458;9,727323793755913;10,061098055970946;152,71462141788996;-364,9708548234504;99,27671132541887
18:55:08.120;0;Wrist;1;2307;9,82;8,24268318735313;12,755223433637502;5,602392937253945;12,755223433637502;8,24268318735313;5,602392937253945;160,8020264290292;-387,49351481673636;121,06692709128086
18:55:08.120;0;Wrist;1;2308;9,82;5,4313180944242685;10,312326425977355;5,159752475814082;10,312326425977355;5,4313180944242685;5,159752475814082;161,19876705221716;-379,7112949003571;129,5510727256081
18:55:08.120;0;Wrist;1;2309;9,82;4,386926061281167;5,751933633686331;4,912112891781366;5,751933633686331;4,386926061281167;4,912112891781366;157,07876827295755;-377,4834437086093;133,27433088167973
18:55:08.120;0;Wrist;1;2310;9,82;2,8783594203009124;4,7302712141789;4,766160981322672;4,7302712141789;2,8783594203009124;4,766160981322672;158,4826197088534;-372,7530747398297;128,5134434034242
18:55:08.160;0;Mov;1;2336;10;0;0;0,5287759145062105;-0,2787438760319071;-0,239265114291818;0,5287759145062105;4,974517044587542;27,466658528397474;16,235847041230507
18:55:08.160;0;Mov;1;2337;10;0;0;0,9917539225821711;0,1543260076591922;-0,0598162785729545;0,9917539225821711;0,3357036042359691;41,871395001068144;19,165623950926236
18:55:08.160;0;Mov;1;2338;10;0;1,2944243398464919;1,589916708311716;1,2944243398464919;0,03349711525577372;1,589916708311716;-3,6011841181676685;64,36353648487808;19,196142460402235
18:55:08.160;0;Mov;1;2339;10;0;1,1125827814569536;1,8387524748603779;1,1125827814569536;0,040675070919770656;1,8387524748603779;-8,667256691183203;95,18723105563524;18,15851313821833
18:55:08.160;0;Mov;1;2340;10;0;1,1544541764580218;2,152189846110416;1,1544541764580218;0,0239265114291818;2,152189846110416;-13,733329264198737;130,89388714255196;17,822809533982362
18:55:08.180;0;Wrist;1;2311;9,88;2,535014028977325;4,329502147740104;4,656099314859462;4,329502147740104;2,535014028977325;4,656099314859462;162,51106295968506;-370,4641865291299;124,9732963042085
18:55:08.181;0;Wrist;1;2312;9,88;2,753941417813654;2,3998291917172767;5,588036839655751;2,3998291917172767;2,753941417813654;5,588036839655751;163,121433149205;-370,3421124912259;125,94988860744041
18:55:08.181;0;Wrist;1;2313;9,88;2,488357188634907;0;6,485281018250069;0,01794488357188635;2,488357188634907;6,485281018250069;165,92913602099674;-377,1782586138493;135,01388592181158
18:55:08.181;0;Wrist;1;2314;9,88;1,3877376628925444;-2,8293099765007477;5,329630420850246;-2,8293099765007477;1,3877376628925444;5,329630420850246;171,11728263191625;-392,4069948423719;151,86010315256203
18:55:08.181;0;Wrist;1;2315;9,88;-1,3267250825907162;-4,568767262031923;3,90719941175573;-4,568767262031923;-1,3267250825907162;3,90719941175573;177,98394726401563;-394,14654988250373;161,22928556169316
18:55:08.188;0;Mov;1;2341;9,88;0;1,4080752691351055;2,2514846778008364;1,4080752691351055;0,234479817966628;2,2514846778008364;-15,167699209570605;169,04202398754845;16,602069154942473
18:55:08.188;0;Mov;1;2342;9,88;0,6077333783799249;1,04558857329783;2,3483871444593647;1,04558857329783;0,6077333783799249;2,3483871444593647;-14,618366039002655;207,3732718894009;13,641773735770744
18:55:08.188;0;Mov;1;2343;9,88;0;1,13052766502884;2,433326355403302;1,13052766502884;0,31104464857936337;2,433326355403302;-12,970366527298808;243,11044648579363;11,62755211035493
18:55:08.188;0;Mov;1;2344;9,88;0;1,095834199613941;2,298141518143254;1,095834199613941;-0,13997008888039034;2,298141518143254;-8,392590105899227;276,31458479567857;12,512588885158848
18:55:08.188;0;Mov;1;2345;9,88;0;0,9510788293099764;2,391454960402234;0,9510788293099764;-0,22610554194673757;2,391454960402234;-4,333628345591602;308,7557603686636;17,120883816034425
18:55:08.241;0;Wrist;1;2316;9,94;-2,915445369960631;-6,753257850886563;3,386797788171026;-6,753257850886563;-2,915445369960631;3,386797788171026;183,26364940336313;-387,52403332621236;148,71669667653433
18:55:08.241;0;Wrist;1;2317;9,94;-2,9286050466170233;-10,731040375988037;1,235804363002411;-10,731040375988037;-2,9286050466170233;1,235804363002411;183,90453810235908;-376,47633289590135;132,7860347300638
18:55:08.241;0;Wrist;1;2318;9,94;-5,519846091341899;-15,181371501815851;-1,8399487765892515;-15,181371501815851;-5,519846091341899;-1,8399487765892515;172,7652821436201;-346,7513046662801;134,34247871333963
18:55:08.241;0;Wrist;1;2319;9,94;-8,960478530228583;-19,25246818445387;-4,032813596758935;-19,25246818445387;-8,960478530228583;-4,032813596758935;147,8621784112064;-297,0671712393567;133,94573809015168
18:55:08.241;0;Wrist;1;2320;9,94;-14,180046807763908;-24,899124881740775;-4,099807924130985;-24,899124881740775;-14,180046807763908;-4,099807924130985;119,02218695638905;-253,1205175939207;88,47315897091586
18:55:08.271;0;Wrist;1;2321;9,84;-18,619611575670643;-32,32710882900479;-4,9814995841853085;-32,32710882900479;-18,619611575670643;-4,9814995841853085;102,87789544358654;-223,51756340220345;44,25183874019593
18:55:08.271;0;Wrist;1;2322;9,84;-18,947405163731805;-35,10976363414411;-14,62986579485458;-35,10976363414411;-18,947405163731805;-14,62986579485458;95,7670827356792;-200,78127384258553;9,582811975463118
18:55:08.271;0;Wrist;1;2323;9,84;-16,04511970885342;-35,103782006286814;-20,621065019684437;-35,103782006286814;-16,04511970885342;-20,621065019684437;76,021607104709;-151,43284401989806;-46,29657887508774
18:55:08.271;0;Wrist;1;2324;9,84;-10,672420995208594;-35,273659474471266;-24,60961294900357;-35,273659474471266;-10,672420995208594;-24,60961294900357;48,982207708975494;-92,4405652027955;-66,04205450605792
18:55:08.271;0;Wrist;1;2325;9,84;-9,832600253303628;-33,1322367015595;-27,8684041871395;-33,1322367015595;-9,832600253303628;-27,8684041871395;23,163548692281868;-19,01303140354625;-37,35465559862056
18:55:08.368;0;Mov;1;2346;10,57;-0,7596667378765221;1,3638111514633626;2,5888486796929837;1,3638111514633626;-0,7596667378765221;2,5888486796929837;-0,09155552842799158;343,5468611713004;25,75762199774163
18:55:08.368;0;Mov;1;2347;10,57;-1,4308053596224861;1,7550096848582415;2,872377792443617;1,7550096848582415;-1,4308053596224861;2,872377792443617;4,791405987731559;383,7397381511887;38,453321939756464
18:55:08.368;0;Mov;1;2348;10,57;-1,4152531987212744;2,176116357539598;2,735996534241768;2,176116357539598;-1,4152531987212744;2,735996534241768;7,843256935331278;428,1136509292886;53,68205816827906
18:55:08.368;0;Mov;1;2349;10,57;-0,5897884948080385;2,410596026490066;2,6283272328104497;2,410596026490066;-0,5897884948080385;2,6283272328104497;5,4322946867275;476,33289590136417;70,28412732322154
18:55:08.368;0;Mov;1;2350;10,57;-0,9223670513588367;2,191668399227882;3,7325357829523607;2,191668399227882;-0,9223670513588367;3,7325357829523607;9,491256447035127;528,4585100863674;84,47523422956023
18:55:08.369;0;Mov;1;2351;10,31;-1,5324930331965088;2,100747798852504;3,7768000198370313;2,100747798852504;-1,5324930331965088;3,7768000198370313;40,07080294198431;594,8057496871853;100,19226660969878
18:55:08.369;0;Mov;1;2352;10,31;-0,9427045979949339;0;4,2948088015381325;-0,08015381775824382;-0,9427045979949339;4,2948088015381325;41,322061830500196;678,2433545945617;113,89507736442152
18:55:08.369;0;Mov;1;2353;10,31;-5,890707018494217;-6,714975718710898;14,979193052461317;-6,714975718710898;-5,890707018494217;14,979193052461317;10,467848750267036;695,0285348063601;132,93862727744377
18:55:08.370;0;Mov;1;2354;10,31;-14,693270859401228;-19,681949446089053;20,49305703909421;-19,681949446089053;-14,693270859401228;20,49305703909421;76,99819940794092;566,02679525132;151,31076998199407
18:55:08.371;0;Mov;1;2355;10,31;-10,299167226172674;-22,94911420026246;18,474856563005464;-22,94911420026246;-10,299167226172674;18,474856563005464;198,9806817835017;359,5995971556749;167,05832087160863
18:55:08.398;0;Mov;1;2356;10,19;-3,154710484252449;-9,443794442579424;18,499979018524733;-9,443794442579424;-3,154710484252449;18,499979018524733;188,1466109195227;230,81148716696677;139,25595873897518
18:55:08.398;0;Mov;1;2357;10,19;-0,9594531202314829;1,6006836622974334;25,527195806756797;1,6006836622974334;-0,9594531202314829;25,527195806756797;72,75612659077731;190,40498062074647;110,59907834101382
18:55:08.398;0;Mov;1;2358;10,19;4,348643452253792;0;36,3216422009949;0,468959635933256;4,348643452253792;36,3216422009949;-58,80916776024659;137,91314432203131;152,43995483260596
18:55:08.398;0;Mov;1;2359;10,19;-13,530442213202306;0,7776116214484085;32,371375926999725;0,7776116214484085;-13,530442213202306;32,371375926999725;-57,89361247596668;70,37568285164953;213,9957884456923
18:55:08.398;0;Mov;1;2360;10,19;-21,256313516647847;8,941337702566607;29,047980819116795;8,941337702566607;-21,256313516647847;29,047980819116795;4,608294930875576;23,773918881801812;240,1501510666219
18:55:08.400;0;Mov;1;2361;9,95;-16,743772316660053;13,748173657948545;25,590599917600024;13,748173657948545;-16,743772316660053;25,590599917600024;10,834070863979003;-34,18073061311686;193,6399426252022
18:55:08.400;0;Mov;1;2362;9,95;-16,920829264198737;14,175262077700125;25,06661046174505;14,175262077700125;-16,920829264198737;25,06661046174505;-25,849177526169623;-82,76619769890439;123,66100039674062
18:55:08.400;0;Mov;1;2363;9,95;-18,412646488845485;11,781414036988433;26,642170476393932;11,781414036988433;-18,412646488845485;26,642170476393932;-82,36945707571643;-155,2476577043977;53,16324350718711
18:55:08.400;0;Mov;1;2364;9,95;-19,223755989257484;11,09472373119297;23,657338175603503;11,09472373119297;-19,223755989257484;23,657338175603503;-94,5463423566393;-254,95162816248055;-9,949034089175084
18:55:08.400;0;Mov;1;2365;9,95;-15,273488761558886;12,923904957731864;18,36120563371685;12,923904957731864;-15,273488761558886;18,36120563371685;-83,37656788842433;-336,43604846339304;-65,70635090182195
18:55:08.450;0;Wrist;1;2326;10,49;-13,859431745353557;-29,18555825983459;-26,567999053926208;-29,18555825983459;-13,859431745353557;-26,567999053926208;-17,792291024506362;61,64738914151433;1,7090365306558428
18:55:08.450;0;Wrist;1;2327;10,49;-23,692031998657185;-33,719634083071384;1,4666951267662587;-33,719634083071384;-23,692031998657185;1,4666951267662587;-126,62129581591235;93,38663899655141;35,9202856532487
18:55:08.450;0;Wrist;1;2328;10,49;-28,695064775536363;-27,529845194860684;29,37218657490768;-27,529845194860684;-28,695064775536363;29,37218657490768;-202,94808801538133;-71,8100527970214;0,4272591326639607
18:55:08.450;0;Wrist;1;2329;10,49;14,961248168889432;30,000257499923705;14,999530777916807;30,000257499923705;14,961248168889432;14,999530777916807;-73,85479293191321;39,03317361980041;-173,46720786156803
18:55:08.450;0;Wrist;1;2330;10,49;9,771587076937163;30,08400028992584;-2,3089083529160437;30,08400028992584;9,771587076937163;-2,3089083529160437;-12,298959318826869;77,45597705008088;-121,7383342997528
18:55:08.451;0;Wrist;1;2331;10,24;-19,443880275887327;-29,100619525742363;0,8781029932935576;-29,100619525742363;-19,443880275887327;0,8781029932935576;-4,608294930875576;-65,52323984496597;138,70662556840725
18:55:08.452;0;Wrist;1;2332;10,24;-2,6091861667226173;-13,299551568651387;1,292031617175817;-13,299551568651387;-2,6091861667226173;1,292031617175817;2,3499252296517836;12,482070375682852;-73,03079317606128
18:55:08.452;0;Wrist;1;2333;10,24;8,858790856654561;8,928177549058503;0;8,928177549058503;8,858790856654561;-0,13997008888039034;0,6714072084719382;50,69124423963134;-45,47257911923582
18:55:08.452;0;Wrist;1;2334;10,24;1,636573429441206;-1,9823115434354686;2,6797692800683617;-1,9823115434354686;1,636573429441206;2,6797692800683617;5,21866512039552;-7,446516312143315;24,628437147129734
18:55:08.452;0;Wrist;1;2335;10,24;3,5949583422345652;-2,9046785351878412;-0,6508011347163305;-2,9046785351878412;3,5949583422345652;-0,6508011347163305;-0,45777764213995786;-0,9460737937559129;-19,165623950926236
18:55:08.453;0;Wrist;1;2336;10;0;-0,7967528663556321;0;-0,7967528663556321;-0,1315958128604999;0,17466353939367352;-3,1434064760277107;1,3733329264198737;-27,95495468001343
18:55:08.453;0;Wrist;1;2337;10;1,9177099387340921;0,5658619833788567;0,644819506859035;0,5658619833788567;1,9177099387340921;0,644819506859035;1,0376293221839046;1,3122959074678793;-17,975402081362347
18:55:08.453;0;Wrist;1;2338;10;1,7083529637287516;1,0731041091265603;0,6962614945104831;1,0731041091265603;1,7083529637287516;0,6962614945104831;-1,6785180211798456;7,690664387951292;-18,402661214026306
18:55:08.453;0;Wrist;1;2339;10;1,3422773627048554;0;0,835035236957152;-0,027515489261180266;1,3422773627048554;0,835035236957152;-3,47911008026368;16,602069154942473;-19,47080904568621
18:55:08.453;0;Wrist;1;2340;10;1,6186285458693197;0;1,3027985711615344;0,2548173646027253;1,6186285458693197;1,3027985711615344;-5,798516800439467;30,152287362285225;-21,362956633198035
18:55:08.458;0;Mov;1;2366;9,99;-10,068276581621754;12,937065111239967;15,901559686574908;12,937065111239967;-10,068276581621754;15,901559686574908;-87,16086306344798;-384,7163304544206;-108,46278267769402
18:55:08.458;0;Mov;1;2367;9,99;-6,387182130649739;10,524076242866299;14,020935697500533;10,524076242866299;-6,387182130649739;14,020935697500533;-103,2441175572985;-430,61616870632037;-130,19196142460402
18:55:08.459;0;Mov;1;2368;9,99;-3,9215552709280677;8,664985923337504;12,220465712454605;8,664985923337504;-3,9215552709280677;12,220465712454605;-110,11078218939787;-470,01556443983276;-124,30188909573657
18:55:08.459;0;Mov;1;2369;9,99;-2,718051650669881;5,2769921910763875;11,460798974578081;5,2769921910763875;-2,718051650669881;11,460798974578081;-123,53892635883663;-508,25525681325723;-105,4109317300943
18:55:08.459;0;Mov;1;2370;9,99;-5,617944978942228;0;9,442597544785913;0,38402051439901425;-5,617944978942228;9,442597544785913;-133,94573809015168;-547,3189489425337;-91,64708395641956
18:55:08.481;0;Wrist;1;2341;9,9;2,4309335135196997;0;1,9201025421918394;0,4653706711401715;2,4309335135196997;1,9201025421918394;-11,597033600878934;51,332132938627275;-26,886806848353526
18:55:08.481;0;Wrist;1;2342;9,9;2,6331126781517993;0,6831019370670186;3,123606162450026;0,6831019370670186;2,6331126781517993;3,123606162450026;-24,597918637653738;84,93301187170019;-37,50724814600055
18:55:08.481;0;Wrist;1;2343;9,9;2,5876522587511825;0,947489864516892;4,389318426313059;0,947489864516892;2,5876522587511825;4,389318426313059;-42,97006134220405;137,63847773674735;-50,81331827753532
18:55:08.481;0;Wrist;1;2344;9,9;1,848323007904294;2,165349284340953;4,872634338663899;2,165349284340953;1,848323007904294;4,872634338663899;-58,19879757072665;200,90334788048952;-67,11020233771782
18:55:08.481;0;Wrist;1;2345;9,9;1,137705594615009;1,8566973584322641;4,534073915829951;1,8566973584322641;1,137705594615009;4,534073915829951;-68,14783165990173;256,1723685415204;-80,93508713034456
18:55:08.523;0;Mov;1;2371;10,06;-7,894552827539903;-2,977654490417188;3,6248664815210425;-2,977654490417188;-7,894552827539903;3,6248664815210425;-132,93862727744377;-567,8273873104038;-101,13834040345469
18:55:08.524;0;Mov;1;2372;10,06;-7,054732085634938;-4,6345651684621725;0,5000640769486069;-4,6345651684621725;-7,054732085634938;0,5000640769486069;-128,94070253608814;-544,7859126560259;-127,62840662862025
18:55:08.524;0;Mov;1;2373;10,06;-10,650886371959594;-6,220892971587268;2,6941251392406995;-6,220892971587268;-10,650886371959594;2,6941251392406995;-133,7015900143437;-499,71007415997803;-165,80706198309275
18:55:08.524;0;Mov;1;2374;10,06;-14,486306726279489;-9,794317644276253;2,2801966345713676;-9,794317644276253;-14,486306726279489;2,2801966345713676;-130,588702047792;-465,4377880184332;-242,80526139103367
18:55:08.524;0;Mov;1;2375;10,06;-5,692117355113377;-13,70869510483108;3,989745780816065;-13,70869510483108;-5,692117355113377;3,989745780816065;-152,83669545579394;-424,9702444532609;-328,53175450910976
18:55:08.541;0;Wrist;1;2346;9,95;1,5229225001525926;2,349583565401166;4,134501270332957;2,349583565401166;1,5229225001525926;4,134501270332957;-79,28708761864071;304,36109500412;-88,68678853724784
18:55:08.541;0;Wrist;1;2347;9,95;1,648536685155797;2,0433241237372965;3,65477462080752;2,0433241237372965;1,648536685155797;3,65477462080752;-93,81389812921537;342,2345652638325;-92,28797265541552
18:55:08.541;0;Wrist;1;2348;9,95;2,708481236838893;1,5994873605685598;3,520786204489273;1,5994873605685598;2,708481236838893;3,520786204489273;-110,38544877468185;372,7530747398297;-99,45982238227485
18:55:08.541;0;Wrist;1;2349;9,95;3,7181799237800224;2,0995513779107027;4,22542210913419;2,0995513779107027;3,7181799237800224;4,22542210913419;-130,77181310464798;397,53410443433944;-116,76381725516526
18:55:08.541;0;Wrist;1;2350;9,95;4,04956205938902;2,527835980178228;4,042384010589923;2,527835980178228;4,04956205938902;4,042384010589923;-159,42869350260932;409,6804712057863;-132,4808496353038
18:55:08.583;0;Mov;1;2376;10,11;5,239906002990814;-19,193847849971007;8,623114528336435;-19,193847849971007;5,239906002990814;8,623114528336435;-202,0630512405774;-388,0733664967803;-368,75514999847405
18:55:08.584;0;Mov;1;2377;10,11;11,377056184575945;-25,612134540849024;10,516898670918913;-25,612134540849024;11,377056184575945;10,516898670918913;-214,63667714468826;-374,46211127048554;-337,9619739371929
18:55:08.584;0;Mov;1;2378;10,11;17,08711890011292;-30,28258995330668;7,857466639454329;-30,28258995330668;17,08711890011292;7,857466639454329;-200,29297769096956;-379,5892208624531;-270,3329569383831
18:55:08.584;0;Mov;1;2379;10,11;18,90074808496353;-34,43024994659261;1,5528306394390698;-34,43024994659261;18,90074808496353;1,5528306394390698;-178,35016937772758;-376,9951475569933;-204,04675435651723
18:55:08.584;0;Mov;1;2380;10,11;15,947019867549669;-36,12903225806452;-7,225806451612903;-36,12903225806452;15,947019867549669;-7,225806451612903;-138,1267738883633;-342,1124912259285;-136,44825586718343
18:55:08.602;0;Wrist;1;2351;10;4,135697691274758;2,264644354457228;4,045973273415326;2,264644354457228;4,135697691274758;4,045973273415326;-179,3267616809595;420,4535050508133;-143,6201055940428
18:55:08.602;0;Wrist;1;2352;10;4,5280922879726555;2,936979277932066;4,140482898190252;2,936979277932066;4,5280922879726555;4,140482898190252;-204,84023560289316;434,88876003295996;-156,80410168767358
18:55:08.602;0;Wrist;1;2353;10;3,892843552583392;3,7672293675801876;3,538731088061159;3,7672293675801876;3,892843552583392;3,538731088061159;-218,17682424390392;466,0176396984771;-174,47431867427593
18:55:08.602;0;Wrist;1;2354;10;1,0802820387127292;1,1197607110431227;8,864772484511857;1,1197607110431227;1,0802820387127292;8,864772484511857;-201,63579210791346;515,7628101443526;-193,3957945493942
18:55:08.603;0;Wrist;1;2355;10;1,8650715897473067;-10,949967764824367;15,43020798364208;-10,949967764824367;1,8650715897473067;15,43020798364208;-137,21121860408337;479,6899319437239;-172,9483932004761
18:55:08.607;0;Mov;1;2381;9,99;13,297158726767785;-37,27750480666524;-14,250630397961364;-37,27750480666524;13,297158726767785;-14,250630397961364;-119,23581652272102;-283,48643452253793;-82,97982726523637
18:55:08.607;0;Mov;1;2382;9,99;10,948771820734276;-37,675881984923855;-22,031531342509233;-37,675881984923855;10,948771820734276;-22,031531342509233;-119,38840907010102;-223,39548936429944;-60,76235236671041
18:55:08.607;0;Mov;1;2383;9,99;13,465841204565569;-37,45097201452681;-25,183849223303934;-37,45097201452681;13,465841204565569;-25,183849223303934;-123,8746299630726;-130,49714651936398;-62,13568529313029
18:55:08.607;0;Mov;1;2384;9,99;17,113437299722282;-34,467337565233315;-23,089083529160437;-34,467337565233315;17,113437299722282;-23,089083529160437;-118,13715018158513;-16,022217474898525;-69,09390545365764
18:55:08.607;0;Mov;1;2385;9,99;17,743902020325326;-28,759666737876522;-21,04336680196539;-28,759666737876522;17,743902020325326;-21,04336680196539;-81,60649433881649;71,13864558854945;-71,13864558854945
18:55:08.630;0;Wrist;1;2356;9,9;5,09275814844203;-21,198889126255075;14,273360965300455;-21,198889126255075;5,09275814844203;14,273360965300455;-81,05716116824854;349,2843409527879;-121,34159367656484
18:55:08.630;0;Wrist;1;2357;9,9;3,879683875927;-11,55889786217841;16,728221228675192;-11,55889786217841;3,879683875927;16,728221228675192;-81,30130924405653;257,7593310342723;-99,15463728751487
18:55:08.630;0;Wrist;1;2358;9,9;0,5598803555215613;0,8493911557359538;19,023970381786555;0,8493911557359538;0,5598803555215613;19,023970381786555;-82,76619769890439;206,579790643025;-80,4162724692526
18:55:08.630;0;Wrist;1;2359;9,9;1,719119917714469;0;25,83704451124607;-0,3026703874610889;1,719119917714469;25,83704451124607;-83,49864192632832;153,63017670216988;-70,6503494369335
18:55:08.631;0;Wrist;1;2360;9,9;12,854518265327922;1,6712668948561051;23,57359538560137;1,6712668948561051;12,854518265327922;23,57359538560137;-73,30545976134526;100,58900723288674;-54,17035431989502
18:55:08.640;0;Mov;1;2386;9,91;17,61708998382519;-23,70758499404889;-19,10890911587878;-23,70758499404889;17,61708998382519;-19,10890911587878;-45,99139378032777;134,12884914700766;-84,07849360637226
18:55:08.640;0;Mov;1;2387;9,91;17,09908215582751;-20,726340525528734;-14,654988250373851;-20,726340525528734;17,09908215582751;-14,654988250373851;-30,152287362285225;190,98483230079043;-89,72441785943174
18:55:08.640;0;Mov;1;2388;9,91;17,304849391155734;-16,50929288613544;-14,078359134189887;-16,50929288613544;17,304849391155734;-14,078359134189887;-14,404736472670674;214,1483809930723;-78,40205084383679
18:55:08.640;0;Mov;1;2389;9,91;23,32356295968505;-19,352959913937802;-16,457852031006805;-19,352959913937802;23,32356295968505;-16,457852031006805;-25,055696279793693;231,26926480910672;-50,66072573015534
18:55:08.640;0;Mov;1;2390;9,91;-6,911173017059847;-34,02230521561327;23,000555055391096;-34,02230521561327;-6,911173017059847;23,000555055391096;129,1848506118961;360,27100436414685;130,74129459517198
18:55:08.691;0;Wrist;1;2361;9,95;12,342491111484115;9,291860904263435;26,736680578020568;9,291860904263435;12,342491111484115;26,736680578020568;-56,794946134830774;96,62160100100711;-41,2915433210242
18:55:08.691;0;Wrist;1;2362;9,95;12,915531441694387;6,70660124897;33,24708548234504;6,70660124897;12,915531441694387;33,24708548234504;-31,708731345561084;59,205908383434554;-21,485030671102024
18:55:08.691;0;Wrist;1;2363;9,95;18,91390728476821;5,7303994872890405;35,898140659810174;5,7303994872890405;18,91390728476821;35,898140659810174;-27,06991790520951;0,5493331705679495;-5,462813196203498
18:55:08.691;0;Wrist;1;2364;9,95;21,38192770165105;13,55436872463149;31,041060747093113;13,55436872463149;21,38192770165105;31,041060747093113;-26,764732810449537;-73,79375591296122;16,235847041230507
18:55:08.691;0;Wrist;1;2365;9,95;18,325315866573078;17,949669255653554;22,81871433149205;17,949669255653554;18,325315866573078;22,81871433149205;-14,007995849482711;-144,96292001098666;76,78456984160894
18:55:08.720;0;Wrist;1;2366;9,86;15,152660260322886;18,97850924710837;18,310958815271462;18,97850924710837;15,152660260322886;18,310958815271462;-1,4954069643238623;-175,32883693960386;115,75670644245736
18:55:08.720;0;Wrist;1;2367;9,86;12,803076456495864;17,060798593096713;18,928264336069827;17,060798593096713;12,803076456495864;18,928264336069827;21,790215765861994;-195,04379406109805;113,52885525070955
18:55:08.721;0;Wrist;1;2368;9,86;12,981329348124637;14,626277008880887;17,75586527603992;14,626277008880887;12,981329348124637;17,75586527603992;49,71465193639943;-246,31488998077333;111,17893002105777
18:55:08.721;0;Wrist;1;2369;9,86;12,209699354533525;15,03542054506058;15,500790620136113;15,03542054506058;12,209699354533525;15,500790620136113;78,06634723960082;-293,03872798852507;109,43937498092593
18:55:08.721;0;Wrist;1;2370;9,86;11,099508461256752;13,839094019898068;13,32347808008057;13,839094019898068;11,099508461256752;13,32347808008057;105,80767235328227;-332,74330881679737;115,51255836664937
18:55:08.727;0;Mov;1;2391;10,07;-28,25960379345073;-22,13680875576037;4,351036294137394;-22,13680875576037;-28,25960379345073;4,351036294137394;405,80462050233467;81,30130924405653;534,3485824152349
18:55:08.727;0;Mov;1;2392;10,07;19,818329035309915;29,848323007904295;1,050373899426252;29,848323007904295;19,818329035309915;1,050373899426252;161,9922482985931;-10,742515335551012;31,40354625080111
18:55:08.727;0;Mov;1;2393;10,07;1,0994232240134891;-4,150053312021241;1,906942984748375;-4,150053312021241;1,0994232240134891;1,906942984748375;140,96499526963103;84,90249336222419;-18,67732779931028
18:55:08.728;0;Mov;1;2394;10,07;-9,444990386669515;-30,121086001159703;0;-30,121086001159703;-9,444990386669515;0,3026703874610889;164,40321054719686;-13,122959074678793;70,16205328531754
18:55:08.728;0;Mov;1;2395;10,07;3,3281776921140174;9,113608012634662;0,5838068669507431;9,113608012634662;3,3281776921140174;0,5838068669507431;131,93151646473586;-26,154362620929593;47,27317117831965
18:55:08.783;0;Wrist;1;2371;9,92;7,827558500167852;10,818371951963867;13,20264957884457;10,818371951963867;7,827558500167852;13,20264957884457;138,70662556840725;-367,10715048677025;117,3741874446852
18:55:08.783;0;Wrist;1;2372;9,92;4,418030621509446;6,982952551347392;12,958598780785547;6,982952551347392;4,418030621509446;12,958598780785547;176,36646626178776;-406,5675832392346;114,93270668660543
18:55:08.783;0;Wrist;1;2373;9,92;1,6234138719977416;4,2601154553361615;11,581628429517503;4,2601154553361615;1,6234138719977416;11,581628429517503;208,01416058839686;-440,8093508713034;105,31937620166632
18:55:08.783;0;Wrist;1;2374;9,92;-0,7189917042107914;1,878231147190771;10,924845309305093;1,878231147190771;-0,7189917042107914;10,924845309305093;236,09118930631428;-458,7542344431898;90,36530655842769
18:55:08.783;0;Wrist;1;2375;9,92;-1,5205297774819178;-1,5647938951536606;10,948771820734276;-1,5647938951536606;-1,5205297774819178;10,948771820734276;257,42362743003633;-467,11630603961305;81,88116092410047
18:55:08.787;0;Mov;1;2396;10,11;-0,9738090390102847;-1,2597308744315927;1,0348216193121127;-1,2597308744315927;-0,9738090390102847;1,0348216193121127;111,45359660634175;-22,675252540665912;54,01776177251503
18:55:08.787;0;Mov;1;2397;10,11;0,7249733320680868;-3,6595600661488694;0,7225806690038759;-3,6595600661488694;0,7249733320680868;0,7225806690038759;96,49952696310312;-16,08325449385052;19,745475630970184
18:55:08.787;0;Mov;1;2398;10,11;-0,8051270976706748;1,7980773815881832;0;1,7980773815881832;-0,8051270976706748;0,1064729773500206;72,8171636097293;-10,65095980712302;33,63139744254891
18:55:08.787;0;Mov;1;2399;10,11;1,8172185668889431;-2,9058749561296424;0;-2,9058749561296424;1,8172185668889431;0,003588976900647469;62,41035187841426;-7,4159978026673175;28,90102847376934
18:55:08.787;0;Mov;1;2400;10,11;1,6545183130130925;2,3328348643452252;0,9319376440092166;2,3328348643452252;1,6545183130130925;0,9319376440092166;33,32621234778893;1,8311105685598315;21,820734275337994
18:55:08.789;0;Mov;1;2401;9,92;0;0;0,8972441785943175;0,1507370279644917;0,16389660030957212;0,8972441785943175;10,22370067445906;24,262215033417768;18,67732779931028
18:55:08.789;0;Mov;1;2402;9,92;0;0,6089297397152623;1,5420636854533525;0,6089297397152623;-0,119632557145909;1,5420636854533525;-5,340739158299509;47,36472670674764;23,651844843897823
18:55:08.789;0;Mov;1;2403;9,92;0;1,1197607110431227;2,1892757957701345;1,1197607110431227;-0,34573808419103064;2,1892757957701345;-18,738364818262276;80,29419843134862;28,229621265297403
18:55:08.789;0;Mov;1;2404;9,92;-0,7034394240966522;1,0515702011551256;2,6558427686391797;1,0515702011551256;-0,7034394240966522;2,6558427686391797;-33,50932340464492;127,23166600543229;37,11050752281258
18:55:08.789;0;Mov;1;2405;9,92;0;1,2322153386028627;3,3556932279427474;1,2322153386028627;-0,22969452164143803;3,3556932279427474;-49,25687429425947;185,55253761406294;51,789910580767234
18:55:08.844;0;Wrist;1;2376;9,96;-0,8194830164494766;-6,614483989226966;9,258363979003265;-6,614483989226966;-0,8194830164494766;9,258363979003265;263,74095889156774;-471,7551194799646;99,42930387279885
18:55:08.844;0;Wrist;1;2377;9,96;-3,4860928582873014;-8,721213415936766;8,35274533066805;-8,721213415936766;-3,4860928582873014;8,35274533066805;259,6209601123081;-455,3971984008301;142,3993652150029
18:55:08.844;0;Wrist;1;2378;9,96;-7,34304664372692;-11,611536568803979;10,36017944883572;-11,611536568803979;-7,34304664372692;10,36017944883572;253,42570268868067;-429,21231727042453;174,53535569322796
18:55:08.844;0;Wrist;1;2379;9,96;-11,244264427625355;-18,97611735892819;12,177398373363445;-18,97611735892819;-11,244264427625355;12,177398373363445;243,14096499526963;-410,38239692373423;189,79461043122654
18:55:08.844;0;Wrist;1;2380;9,96;-16,718649861140783;-26,237813577684864;8,648237937559129;-26,237813577684864;-16,718649861140783;8,648237937559129;230,99459822382275;-393,4141056550798;195,01327555162206
18:55:08.854;0;Mov;1;2406;9,98;0,6400341807306131;1,6317881033127841;3,6380261581774347;1,6317881033127841;0,6400341807306131;3,6380261581774347;-58,7176122318186;246,98629718924528;62,898648030030216
18:55:08.855;0;Mov;1;2407;9,98;0,5215979849200415;1,2788720597323526;3,453791877117222;1,2788720597323526;0,5215979849200415;3,453791877117222;-64,66872157963805;301,9806512649922;65,79790643024995
18:55:08.855;0;Mov;1;2408;9,98;0;1,247767618717002;3,274343041398358;1,247767618717002;0,14834437980189671;3,274343041398358;-68,20886867885372;351,4816736350597;65,43168431653798
18:55:08.855;0;Mov;1;2409;9,98;0;1,5324930331965088;3,1176245345927307;1,5324930331965088;-0,19978636745334483;3,1176245345927307;-67,26279488509782;399,1821039460433;64,24146244697408
18:55:08.855;0;Mov;1;2410;9,98;-0,818286714720603;1,7155308933149205;2,9585131859035005;1,7155308933149205;-0,818286714720603;2,9585131859035005;-63,844721823786124;446,5163121433149;67,96472060304575
18:55:08.900;0;Wrist;1;2381;9,85;-16,608588671529283;-30,637897885067293;5,288955446790979;-30,637897885067293;-16,608588671529283;5,288955446790979;204,2603839228492;-347,880489516892;164,55580309457687
18:55:08.900;0;Wrist;1;2382;9,85;-20,091092028565324;-35,83354060487686;0,7979491680845058;-35,83354060487686;-20,091092028565324;0,7979491680845058;171,51402325510423;-317,78923917355877;90,88412121951964
18:55:08.900;0;Wrist;1;2383;9,85;-18,57415044099246;-36,193636127811516;-11,402179593798639;-36,193636127811516;-18,57415044099246;-11,402179593798639;145,54277169103062;-269,6615497299112;70,49775688955351
18:55:08.901;0;Wrist;1;2384;9,85;-18,115958891567736;-36,312070833460496;-19,847041230506303;-36,312070833460496;-18,115958891567736;-19,847041230506303;128,45240638447217;-182,7143162327952;26,886806848353526
18:55:08.901;0;Wrist;1;2385;9,85;-22,252851573229165;-36,49869914853358;-22,11886387218848;-36,49869914853358;-22,252851573229165;-22,11886387218848;122,7454451124607;-110,72115237891781;3,47911008026368
18:55:08.914;0;Mov;1;2411;10,1;-1,9332622188482314;2,1390301694540237;3,416705927457503;2,1390301694540237;-1,9332622188482314;3,416705927457503;-63,11227759636219;497,42118594927825;80,81301309244057
18:55:08.914;0;Mov;1;2412;10,1;-3,403546250801111;2,1785089609973447;4,201495597705008;2,1785089609973447;-3,403546250801111;4,201495597705008;-47,48680074465163;555,6199835200049;105,59404278695028
18:55:08.914;0;Mov;1;2413;10,1;-3,565050202948088;1,4152531987212744;4,596283036286508;1,4152531987212744;-3,565050202948088;4,596283036286508;-1,0681478316599018;624,8359630115665;143,6201055940428
18:55:08.914;0;Mov;1;2414;10,1;-4,002905457472457;0;5,5928220465712455;-0,20696432684274574;-4,002905457472457;5,5928220465712455;47,242652668843654;671,8039490951262;182,22602008117923
18:55:08.914;0;Mov;1;2415;10,1;-7,380132831812494;-7,060713713492233;15,073702200384533;-7,060713713492233;-7,380132831812494;15,073702200384533;64,18042542802209;639,9121066927091;226,1421552171392
18:55:08.938;0;Mov;1;2416;9,94;-12,472890980254524;-18,08724669637135;25,645632419812618;-18,08724669637135;-12,472890980254524;25,645632419812618;138,27936643574327;467,20786156804104;226,44734031189915
18:55:08.938;0;Mov;1;2417;9,94;-9,204529328287606;-12,22525139622181;25,621705908383433;-12,22525139622181;-9,204529328287606;25,621705908383433;192,2971282082583;232,6731162450026;144,29151280251472
18:55:08.938;0;Mov;1;2418;9,94;-2,410596026490066;5,296133495590075;18,611238059633166;5,296133495590075;-2,410596026490066;18,611238059633166;168,88943144016847;125,0343333231605;97,41508224738304
18:55:08.938;0;Mov;1;2419;9,94;-4,374962805566576;11,10788293099765;15,500790620136113;11,10788293099765;-4,374962805566576;15,500790620136113;143,07077242347484;122,40974150822474;107,69981994079409
18:55:08.938;0;Mov;1;2420;9,94;-3,2516129509109777;4,523307081057161;19,500106814783166;4,523307081057161;-3,2516129509109777;19,500106814783166;87,25241859187598;114,93270668660543;117,25211340678122
18:55:08.961;0;Wrist;1;2386;10,03;-21,83054979094821;-34,25678273873104;-25,016363643299663;-34,25678273873104;-21,83054979094821;-25,016363643299663;90,85360271004365;-44,282357249671925;-10,43733024079104
18:55:08.961;0;Wrist;1;2387;10,03;-19,061056093020415;-27,191284295175024;-23,06874675740837;-27,191284295175024;-19,061056093020415;-23,06874675740837;41,383098849452196;16,571550645466477;-14,954069643238624
18:55:08.961;0;Wrist;1;2388;10,03;-13,857038903469954;-20,673701818903165;-20,629438535721917;-20,673701818903165;-13,857038903469954;-20,629438535721917;-4,821924497207556;44,740134891811884;3,69273964659566
18:55:08.961;0;Wrist;1;2389;10,03;-11,884298608355968;-14,42170476393933;-18,301389355143893;-14,42170476393933;-11,884298608355968;-18,301389355143893;-31,037324137089144;65,67583239234595;26,337473677785578
18:55:08.961;0;Wrist;1;2390;10,03;-12,966973250526443;-15,016278763695182;-18,21764656514176;-15,016278763695182;-12,966973250526443;-18,21764656514176;-47,7919858394116;91,1893063142796;31,86132389294107
18:55:09.030;0;Wrist;1;2391;10;-25,268789864803004;-24,37034783471175;-23,510191274758142;-24,37034783471175;-25,268789864803004;-23,510191274758142;-82,82723471785638;135,8073671681875;-9,430219428083133
18:55:09.030;0;Wrist;1;2392;10;-16,0475115970336;-35,18752479628895;23,567613757744073;-35,18752479628895;-16,0475115970336;23,567613757744073;-292,55043183690907;256,81325724051635;-276,9554734946745
18:55:09.031;0;Wrist;1;2393;10;20,617475280007323;-7,846699804681539;-12,320957441938535;-7,846699804681539;20,617475280007323;-12,320957441938535;-204,2909024323252;7,354960783715323;-382,97677541428874
18:55:09.031;0;Wrist;1;2394;10;-3,6595600661488694;31,224097415082248;-10,113736762596515;31,224097415082248;-3,6595600661488694;-10,113736762596515;-65,24857325968199;174,62691122165594;-81,5454573198645
18:55:09.031;0;Wrist;1;2395;10;-4,864259868923002;-22,484939115573596;-1,216663177701651;-22,484939115573596;-4,864259868923002;-1,216663177701651;-59,48057496871853;-63,38694418164617;62,07464827417829
18:55:09.033;0;Wrist;1;2396;10;-3,059004438535722;-21,224011581774345;5,505490470595416;-21,224011581774345;-3,059004438535722;5,505490470595416;-30,823694570757166;-28,290658284249396;-38,14813684499649
18:55:09.033;0;Wrist;1;2397;10;-1,4224311283074436;12,71095919675283;0,532364879299295;12,71095919675283;-1,4224311283074436;0,532364879299295;-10,22370067445906;40,55909909360027;-36,01184118167669
18:55:09.033;0;Wrist;1;2398;10;6,2555863177892395;-4,907327684865871;-1,0360179210409863;-4,907327684865871;6,2555863177892395;-1,0360179210409863;-5,890072328867458;8,087405011139255;-4,852443006683553
18:55:09.033;0;Wrist;1;2399;10;3,5291604358043154;-4,677632984405042;0;-4,677632984405042;3,5291604358043154;0,3708609271523179;-10,345774712363049;-6,836146122623371;-9,430219428083133
18:55:09.033;0;Wrist;1;2400;10;2,910660163045137;1,311172802476577;0,5993591470648824;1,311172802476577;2,910660163045137;0,5993591470648824;-16,418958098086488;-5,493331705679495;-41,59672841578417
18:55:09.033;0;Mov;1;2421;10,06;-3,8784876934110537;3,2671652310251167;24,786669896542254;3,2671652310251167;-3,8784876934110537;24,786669896542254;40,65065462202826;103,3356730857265;130,436109500412
18:55:09.033;0;Mov;1;2422;10,06;-11,030121768852808;6,232856227301858;31,134372997222815;6,232856227301858;-11,030121768852808;31,134372997222815;-4,089480269783624;99,24619281594286;137,9436628315073
18:55:09.034;0;Mov;1;2423;10,06;-23,0268753624073;8,467592204046754;30,45844904934843;8,467592204046754;-23,0268753624073;30,45844904934843;27,28354747154149;55,940427869502855;116,09241004669332
18:55:09.034;0;Mov;1;2424;10,06;-21,976500747703483;13,103353793450728;25,853791543321023;13,103353793450728;-21,976500747703483;25,853791543321023;71,7184972685934;-9,643848994415112;71,10812707907345
18:55:09.034;0;Mov;1;2425;10,06;-16,226960432752463;15,572570154423659;20,816064943388167;15,572570154423659;-16,226960432752463;20,816064943388167;45,31998657185583;-74,31257057405317;-12,848292489394819
18:55:09.034;0;Mov;1;2426;9,98;-14,031703009125035;16,798804818872647;18,996454130680256;16,798804818872647;-14,031703009125035;18,996454130680256;8,514664143803216;-109,59196752830591;-69,00234992522965
18:55:09.034;0;Mov;1;2427;9,98;-11,472762230292673;14,548515846736045;20,130571535386213;14,548515846736045;-11,472762230292673;20,130571535386213;-14,374217963194678;-148,74721518601032;-87,92382580034791
18:55:09.034;0;Mov;1;2428;9,98;-10,265670300912504;11,993163853877377;19,16513565477462;11,993163853877377;-10,265670300912504;19,16513565477462;-22,858363597521898;-210,48615985595262;-94,66841639454329
18:55:09.034;0;Mov;1;2429;9,98;-8,870754112369152;11,808930288094729;17,599145100253303;11,808930288094729;-8,870754112369152;17,599145100253303;-33,81450849940489;-274,39191869869074;-101,80974761192664
18:55:09.034;0;Mov;1;2430;9,98;-6,376415295876949;10,051527642139957;15,096432767723625;10,051527642139957;-6,376415295876949;15,096432767723625;-62,44087038789026;-345,9578234199042;-115,63463240455336
18:55:09.140;0;Wrist;1;2401;10,08;0;0;0,6388378790017396;-0,37684255500961333;0,03947874311306917;0,6388378790017396;-18,524735251930295;-5,188146610919523;-37,47672963652455
18:55:09.140;0;Wrist;1;2402;10,08;0,651997436445204;-0,5299722162350841;0;-0,5299722162350841;0,651997436445204;0,4581927117507706;-16,663106173894466;1,281777397991882;-29,69450972014527
18:55:09.140;0;Wrist;1;2403;10,08;0,7070284484962004;0;1,043195969840083;-0,13279214439260537;0,7070284484962004;1,043195969840083;-18,03643910031434;8,087405011139255;-25,269325846125675
18:55:09.140;0;Wrist;1;2404;10,08;1,955992309335612;0,7417218543046358;1,3267250825907162;0,7417218543046358;1,955992309335612;1,3267250825907162;-19,47080904568621;19,89806817835017;-26,490066225165563
18:55:09.140;0;Wrist;1;2405;10,08;2,661824396496475;0,9881649577890865;1,7514206604586933;0,9881649577890865;2,661824396496475;1,7514206604586933;-24,201178014465775;38,14813684499649;-37,41569261757256
18:55:09.142;0;Wrist;1;2406;9,97;1,9715445894497512;1,301602269432661;2,7994018372142704;1,301602269432661;1,9715445894497512;2,7994018372142704;-32,74636066774499;68,72768333994567;-51,0574663533433
18:55:09.142;0;Wrist;1;2407;9,97;2,685750907925657;0,9271523178807947;3,7983336893826105;0,9271523178807947;2,685750907925657;3,7983336893826105;-43,27524643696402;115,75670644245736;-61,861018707846306
18:55:09.143;0;Wrist;1;2408;9,97;1,9308694961775568;0,9845759929960021;4,5077550393688774;0,9845759929960021;1,9308694961775568;4,5077550393688774;-60,24353770561846;173,71135593737603;-74,89242225409711
18:55:09.143;0;Wrist;1;2409;9,97;1,2238411072878201;1,8232001947462386;4,756590567491684;1,8232001947462386;1,2238411072878201;4,756590567491684;-75,71642200994903;230,75045014801478;-85,26871547593616
18:55:09.143;0;Wrist;1;2410;9,97;0;2,4512712389751883;4,188335921048616;2,4512712389751883;0,4581927117507706;4,188335921048616;-84,44471572008423;279,97680593279824;-93,17300943021942
18:55:09.147;0;Mov;1;2431;10,19;-4,0196539201025425;8,30728514969329;12,15107902005066;8,30728514969329;-4,0196539201025425;12,15107902005066;-71,13864558854945;-401,04373302407913;-121,03640858180486
18:55:09.147;0;Mov;1;2432;10,19;-2,552958912549211;4,9300577753532515;11,920188375499741;4,9300577753532515;-2,552958912549211;11,920188375499741;-59,63316751609852;-438,8256477553636;-102,32856227301859
18:55:09.148;0;Mov;1;2433;10,19;-1,4475539414654988;0;9,510788293099765;0,4498184208292642;-1,4475539414654988;9,510788293099765;-49,653614917447435;-485,58000427259134;-82,36945707571643
18:55:09.148;0;Mov;1;2434;10,19;-1,0491775976973785;-0,5443281350138859;7,9627430990020445;-0,5443281350138859;-1,0491775976973785;7,9627430990020445;-48,49391155735954;-511,368144779809;-58,290353099154636
18:55:09.148;0;Mov;1;2435;10,19;-4,641743217261269;-1,282461084131901;6,210126136814478;-1,282461084131901;-4,641743217261269;6,210126136814478;-62,50190740684225;-521,408734397412;-47,18161564989166
18:55:09.177;0;Mov;1;2436;10,07;-6,935099528489029;-3,0817347674489577;4,4455459189123205;-3,0817347674489577;-6,935099528489029;4,4455459189123205;-93,63078707235938;-518,4484389782403;-75,65538499099704
18:55:09.177;0;Mov;1;2437;10,07;-11,32800721762749;-5,052083174382763;2,4309335135196997;-5,052083174382763;-11,32800721762749;2,4309335135196997;-111,9113742484817;-499,92370372631;-119,41892757957702
18:55:09.177;0;Mov;1;2438;10,07;-17,13018623920408;-7,978295617542039;2,1043368232520523;-7,978295617542039;-17,13018623920408;2,1043368232520523;-108,24915311136203;-463,9423810541093;-186,9869075594348
18:55:09.177;0;Mov;1;2439;10,07;-17,026106677449874;-14,25661202581866;1,6892117784279916;-14,25661202581866;-17,026106677449874;1,6892117784279916;-117,55729850154118;-422,07098605304117;-286,99606311227757
18:55:09.177;0;Mov;1;2440;10,07;-4,408459730826746;-19,71185758537553;3,621277457121494;-19,71185758537553;-4,408459730826746;3,621277457121494;-146,7635120700705;-368,968779564806;-366,8630024109622
18:55:09.179;0;Mov;1;2441;9,96;12,330527855769525;-25,850203711050753;13,173937383648182;-25,850203711050753;12,330527855769525;13,173937383648182;-191,5341654713584;-327,82982879116184;-373,2718894009217
18:55:09.179;0;Mov;1;2442;9,96;17,334757530442214;-34,8585352641377;13,410809656056399;-34,8585352641377;17,334757530442214;13,410809656056399;-166,81417279580066;-353,98419141209143;-273,2627338480789
18:55:09.179;0;Mov;1;2443;9,96;19,71185758537553;-36,905449842829675;5,482760380108036;-36,905449842829675;19,71185758537553;5,482760380108036;-135,28855250709555;-388,1344035157323;-156,95669423505356
18:55:09.179;0;Mov;1;2444;9,96;15,165819460127567;-37,424653614917446;-5,560521542252876;-37,424653614917446;15,165819460127567;-5,560521542252876;-105,53300576799829;-380,504776146733;-70,95553453169347
18:55:09.179;0;Mov;1;2445;9,96;13,540012627033295;-37,727324747459335;-16,06784836878567;-37,727324747459335;13,540012627033295;-16,06784836878567;-100,13122959074678;-340,1593066194647;-16,571550645466477
18:55:09.207;0;Wrist;1;2411;10,1;1,2130741533021028;1,9308694961775568;3,736124807351909;1,9308694961775568;1,2130741533021028;3,736124807351909;-94,21063875240333;319,5898312326426;-95,37034211249123
18:55:09.207;0;Wrist;1;2412;10,1;1,6808374279000213;1,53368945413831;3,5076265278328806;1,53368945413831;1,6808374279000213;3,5076265278328806;-121,06692709128086;351,1459700308237;-95,88915677358318
18:55:09.207;0;Wrist;1;2413;10,1;2,9166417909024323;1,4068788481933043;3,8605428098391674;1,4068788481933043;2,9166417909024323;3,8605428098391674;-148,65565965758233;376,0185552537614;-99,82604449598682
18:55:09.207;0;Wrist;1;2414;10,1;4,983892426068911;2,4680197016052734;4,233796102023377;2,4680197016052734;4,983892426068911;4,233796102023377;-176,82424390392774;391,247291482284;-107,6387829218421
18:55:09.207;0;Wrist;1;2415;10,1;5,6131597720267346;3,0936980231635487;4,189532341990417;3,0936980231635487;5,6131597720267346;4,189532341990417;-198,40083010345774;402,264473403119;-119,23581652272102
18:55:09.230;0;Wrist;1;2416;9,84;5,251869258705405;3,1582995086519974;3,6129032258064515;3,1582995086519974;5,251869258705405;3,6129032258064515;-221,96111941892758;416,2114322336497;-134,7392193365276
18:55:09.231;0;Wrist;1;2417;9,84;1,5324930331965088;2,978850672933134;0,6795129126674703;2,978850672933134;1,5324930331965088;0,6795129126674703;-261,146885586108;442,4878688924833;-155,88854640339366
18:55:09.231;0;Wrist;1;2418;9,84;-6,1790215765862;0;5,104721404156621;0,34095278786584066;-6,1790215765862;5,104721404156621;-251,22837000640888;504,1352580339976;-197,02749717703787
18:55:09.231;0;Wrist;1;2419;9,84;-3,416705927457503;-10,839906575212867;21,54223570970794;-10,839906575212867;-3,416705927457503;21,54223570970794;-166,84469130527665;495,19333475753047;-236,82363353373822
18:55:09.231;0;Wrist;1;2420;9,84;6,9805597094637895;-23,40850360118412;22,738561281167026;-23,40850360118412;6,9805597094637895;22,738561281167026;-91,89123203222755;315,83605456709495;-158,4826197088534
18:55:09.238;0;Mov;1;2446;9,96;15,889596430860317;-37,763214514603106;-22,26601268044069;-37,763214514603106;15,889596430860317;-22,26601268044069;-124,91225928525651;-281,4111758781701;1,6174810022278512
18:55:09.238;0;Mov;1;2447;9,96;16,783251823480942;-37,86251029999695;-23,47669339579455;-37,86251029999695;16,783251823480942;-23,47669339579455;-132,4198126163518;-189,76409192175055;27,527695547349467
18:55:09.238;0;Mov;1;2448;9,96;13,443110637226479;-30,89869762260811;-24,0688745536668;-30,89869762260811;13,443110637226479;-24,0688745536668;-92,92886135441145;-89,60234382152775;43,27524643696402
18:55:09.238;0;Mov;1;2449;9,96;12,696603099154638;-23,617860576189457;-23,406109805597094;-23,617860576189457;12,696603099154638;-23,406109805597094;-44,373912778099914;3,936887722403638;-5,523850215155492
18:55:09.238;0;Mov;1;2450;9,96;15,34407235175634;-22,535185934018983;-18,204487365337076;-22,535185934018983;15,34407235175634;-18,204487365337076;-22,553178502761924;101,0773033845027;-67,17123935666982
18:55:09.290;0;Wrist;1;2421;9,8;4,00649424344615;-7,249732963042085;22,30190244758446;-7,249732963042085;4,00649424344615;22,30190244758446;-64,36353648487808;182,6837977233192;-114,38337351603748
18:55:09.290;0;Wrist;1;2422;9,8;-1,8650715897473067;9,400726149784845;22,955095828119756;9,400726149784845;-1,8650715897473067;22,955095828119756;-28,107547227393415;142,6129947813349;-123,11166722617267
18:55:09.290;0;Wrist;1;2423;9,8;13,762529755546739;2,913052766502884;23,426448484756005;2,913052766502884;13,762529755546739;23,426448484756005;-44,12976470229194;96,49952696310312;-103,39671010467849
18:55:09.290;0;Wrist;1;2424;9,8;14,699252487258523;3,920359088412122;22,08536599322489;3,920359088412122;14,699252487258523;22,08536599322489;-40,00976592303232;63,69212927640614;-72,8171636097293
18:55:09.290;0;Wrist;1;2425;9,8;15,54146607104709;10,61499660481582;24,39786408581805;10,61499660481582;15,54146607104709;24,39786408581805;-48,24976348155156;85,9401226844081;-27,344584490493485
18:55:09.306;0;Mov;1;2451;9,99;18,24157307657094;-20,72514458143864;-14,371458899197362;-20,72514458143864;18,24157307657094;-14,371458899197362;-0,6103701895199438;161,59550767540514;-96,7131565294351
18:55:09.306;0;Mov;1;2452;9,99;24,521086382641073;-22,484939115573596;-22,694296090578938;-22,484939115573596;24,521086382641073;-22,694296090578938;6,164738914151433;180,94424268318735;-80,84353160191657
18:55:09.306;0;Mov;1;2453;9,99;22,439479888302255;-34,667123172704244;-20,525358973967712;-34,667123172704244;22,439479888302255;-20,525358973967712;-22,40058595538194;189,85564745017854;-21,30191961424604
18:55:09.306;0;Mov;1;2454;9,99;-27,852853099154636;-31,89284379100925;18,974919507431256;-31,89284379100925;-27,852853099154636;18,974919507431256;231,3303018280587;508,25525681325723;443,03720206305127
18:55:09.306;0;Mov;1;2455;9,99;-14,721983054597613;10,09579187902463;-11,37107455671865;10,09579187902463;-14,721983054597613;-11,37107455671865;232,82570879238258;94,14960173345133;516,4342173528245
18:55:09.321;0;Wrist;1;2426;9,92;22,682332834864344;6,165861899929808;32,61303292947172;6,165861899929808;22,682332834864344;32,61303292947172;-63,32590716269417;69,5516830957976;-10,010071108127079
18:55:09.321;0;Wrist;1;2427;9,92;24,644306772057252;5,940952883236183;32,21465575121311;5,940952883236183;24,644306772057252;32,21465575121311;-79,86693929868466;1,4954069643238623;18,738364818262276
18:55:09.321;0;Wrist;1;2428;9,92;24,1897030549028;15,925486198004089;24,601239432966093;15,925486198004089;24,1897030549028;24,601239432966093;-64,97390667439802;-66,95760979033784;73,9463484603412
18:55:09.321;0;Wrist;1;2429;9,92;21,581713309121984;20,192779702139347;18,950992996002075;20,192779702139347;21,581713309121984;18,950992996002075;-31,067842646565143;-110,53804132206183;146,39728995635852
18:55:09.321;0;Wrist;1;2430;9,92;16,675582522049623;17,876693777275918;18,15424054689169;17,876693777275918;16,675582522049623;18,15424054689169;-0,061037018951994385;-135,10544145023957;172,30750450148014
18:55:09.328;0;Mov;1;2456;9,94;-7,187524319437239;6,017517624439223;7,317923711355937;6,017517624439223;-7,187524319437239;7,317923711355937;163,57921079134496;183,99609363078707;10,345774712363049
18:55:09.328;0;Mov;1;2457;9,94;-2,7491562108981595;-15,5211283455916;1,3135655251472518;-15,5211283455916;-2,7491562108981595;1,3135655251472518;159,8254341257973;57,222205267494736;-22,94991912594989
18:55:09.328;0;Mov;1;2458;9,94;1,3051911746192817;-2,421363099688711;2,5206579313791315;-2,421363099688711;1,3051911746192817;2,5206579313791315;138,58455153050326;22,583697012237923;38,758507034516434
18:55:09.328;0;Mov;1;2459;9,94;-5,643067911313212;0;0;-0,3816278513348033;-5,643067911313212;-0,36009400296983246;126,22455519272438;1,2512588885158848;71,13864558854945
18:55:09.328;0;Mov;1;2460;9,94;1,9105320091479232;-10,07425820947905;1,2250374090166936;-10,07425820947905;1,9105320091479232;1,2250374090166936;150,18158513138218;-8,758812219611194;42,26813562425611
18:55:09.410;0;Wrist;1;2431;9,81;13,13804761650441;17,039265877254554;17,448408459730828;17,039265877254554;13,13804761650441;17,448408459730828;33,35673085726493;-172,15491195410016;147,8926969206824
18:55:09.410;0;Wrist;1;2432;9,81;13,050716040528581;16,50570505386517;15,998462630085147;16,50570505386517;13,050716040528581;15,998462630085147;71,26071962645345;-218,11578722495193;113,52885525070955
18:55:09.410;0;Wrist;1;2433;9,81;13,828327661976989;13,776885853144933;13,975475516525773;13,776885853144933;13,828327661976989;13,975475516525773;103,91552476577044;-268,1356242561113;98,54426709799493
18:55:09.410;0;Wrist;1;2434;9,81;12,361631939146092;11,220337916196174;12,683443899349955;11,220337916196174;12,361631939146092;12,683443899349955;132,6334421826838;-310,95309305093537;99,12411877803888
18:55:09.410;0;Wrist;1;2435;9,81;9,543089274269844;8,554924733726004;12,627216406750694;8,554924733726004;9,543089274269844;12,627216406750694;165,89861751152074;-347,0870082705161;107,15048677022614
18:55:09.411;0;Mov;1;2461;9,8;1,1173681075853756;2,2143987281411177;1,6975860097430342;2,2143987281411177;1,1173681075853756;1,6975860097430342;117,89300210577716;-14,77095858638264;39,948728904080326
18:55:09.411;0;Mov;1;2462;9,8;-1,3374920365764336;0;0;0,12681051653530992;-1,3374920365764336;0,3218115727618488;90,73152867213965;-10,254219183935056;49,86724448377941
18:55:09.411;0;Mov;1;2463;9,8;3,431061786629841;-3,337748344370861;0;-3,337748344370861;3,431061786629841;0,34573808419103064;81,60649433881649;-8,48414563432722;34,94369335001679
18:55:09.411;0;Mov;1;2464;9,8;2,629523653752251;1,0348216193121127;0,7512924469550157;1,0348216193121127;2,629523653752251;0,7512924469550157;57,28324228644673;7,5685903500473035;18,402661214026306
18:55:09.411;0;Mov;1;2465;9,8;0,7895748771629993;0;0,7165990411465804;-0,22969452164143803;0,7895748771629993;0,7165990411465804;33,38724936674093;24,78102969450972;14,801477095858639
18:55:09.440;0;Wrist;1;2436;9,92;6,646784970397046;5,156163212988678;11,90822511978515;5,156163212988678;6,646784970397046;11,90822511978515;200,17090365306558;-383,49559007538073;117,25211340678122
18:55:09.440;0;Wrist;1;2437;9,92;4,111771179845577;2,3639394245735037;11,633070238349559;2,3639394245735037;4,111771179845577;11,633070238349559;226,90511795403913;-411,7557298501541;109,04263435773797
18:55:09.440;0;Wrist;1;2438;9,92;2,830506397442549;-0,727365935525834;12,036232146671956;-0,727365935525834;2,830506397442549;12,036232146671956;252,32703634754478;-432,5083162938322;95,70604571672719
18:55:09.440;0;Wrist;1;2439;9,92;2,232343611713004;-2,730014906384472;12,056568918424023;-2,730014906384472;2,232343611713004;12,056568918424023;273,9341410565508;-443,95275734733116;96,74367503891109
18:55:09.440;0;Wrist;1;2440;9,92;0;-4,624994754631183;12,866481521042513;-4,624994754631183;-0,3421491193979461;12,866481521042513;289,1628772850734;-444,2274239326151;104,55641346476638
18:55:09.447;0;Mov;1;2466;9,94;0,9857722947248756;0;1,2764794562746056;0,4510147523613697;0,9857722947248756;1,2764794562746056;10,376293221839045;40,43702505569628;18,06695760979034
18:55:09.447;0;Mov;1;2467;9,94;0,8458021909428693;0,891262550737022;1,6569109164708395;0,891262550737022;0,8458021909428693;1,6569109164708395;-5,066072573015534;66,07257301553392;16,907254249702444
18:55:09.448;0;Mov;1;2468;9,94;1,1556504781868953;0,7584704361476485;2,0253792401654103;0,7584704361476485;1,1556504781868953;2,0253792401654103;-18,55525376140629;99,76500747703483;17,242957853938414
18:55:09.448;0;Mov;1;2469;9,94;0,8434095278786584;0,7788079827837459;2,3447981200598162;0,7788079827837459;0,8434095278786584;2,3447981200598162;-33,99761955626087;141,544846949675;16,357921079134496
18:55:09.448;0;Mov;1;2470;9,94;0;1,5911130100405897;2,740781979583117;1,5911130100405897;0,0933133975541322;2,740781979583117;-49,04324472792749;190,49653614917446;17,761772515030366
18:55:09.507;0;Mov;1;2471;10,08;0;1,3362957348475601;3,0865199743644522;1,3362957348475601;-0,1543260076591922;3,0865199743644522;-58,35139011810663;241,49296548356577;23,68236335337382
18:55:09.507;0;Mov;1;2472;10,08;0;0,5622730185857723;2,8640035611285746;0,5622730185857723;-0,19739371929074984;2,8640035611285746;-61,342204046754354;288,9492477187414;30,854213080233162
18:55:09.507;0;Mov;1;2473;10,08;0;0,5742362743003632;2,6259346293527024;0,5742362743003632;-0,358897671437727;2,6259346293527024;-62,86812952055421;335,8561967833491;37,903988769188516
18:55:09.508;0;Mov;1;2474;10,08;0;1,0683187829981384;2,6091861667226173;1,0683187829981384;-0,4294808741931669;2,6091861667226173;-67,4459059419538;382,3664052247688;46,29657887508774
18:55:09.508;0;Mov;1;2475;10,08;-1,1460799451429793;1,3530441974776453;3,4490066702017272;1,3530441974776453;-1,1460799451429793;3,4490066702017272;-70,03997924741356;432,05053865169225;56,82546464430677
18:55:09.530;0;Wrist;1;2441;10,2;0;-9,453364856410413;14,038880581072421;-9,453364856410413;-0,0837427900021363;14,038880581072421;292,73354289376505;-442,3047578356273;114,47492904446547
18:55:09.530;0;Wrist;1;2442;10,2;-1,4367869874797814;-12,884426404614398;14,382226210821864;-12,884426404614398;-1,4367869874797814;14,382226210821864;284,15784173100985;-438,30683309427167;153,56913968321788
18:55:09.530;0;Wrist;1;2443;10,2;-8,521426854762414;-14,298483420819727;14,633454580828273;-14,298483420819727;-8,521426854762414;14,633454580828273;270,76021607104707;-424,024170659505;205,5116428113651
18:55:09.530;0;Wrist;1;2444;10,2;-18,23200170903653;-20,594744712668234;17,734330652790916;-20,594744712668234;-18,23200170903653;17,734330652790916;248,42066713461713;-402,111880855739;219,00082399975585
18:55:09.530;0;Wrist;1;2445;10,2;-20,714377269814143;-31,364068651387065;18,714121677297282;-31,364068651387065;-20,714377269814143;18,714121677297282;216,04052858058412;-391,03366191595205;195,37949766533401
18:55:09.538;0;Mov;1;2476;9,93;-2,8460586775566883;2,3017305425428023;4,680025826288644;2,3017305425428023;-2,8460586775566883;4,680025826288644;-57,52739036225471;490,7681508835108;71,38279366435744
18:55:09.538;0;Mov;1;2477;9,93;-2,9417647232734154;2,6091861667226173;5,422944101535081;2,6091861667226173;-2,9417647232734154;5,422944101535081;-21,21036408581805;563,9820551164281;97,68974883266701
18:55:09.538;0;Mov;1;2478;9,93;-2,3747062593462935;1,662892544328135;5,428925729392376;1,662892544328135;-2,3747062593462935;5,428925729392376;40,07080294198431;630,90914639729;125,40055543687247
18:55:09.538;0;Mov;1;2479;9,93;-4,864259868923002;1,2238411072878201;8,45204016235847;1,2238411072878201;-4,864259868923002;8,45204016235847;85,45182653279214;674,9778740806299;152,92825098422193
18:55:09.538;0;Mov;1;2480;9,93;-7,614612262337108;-4,510147404400769;19,21777436140019;-4,510147404400769;-7,614612262337108;19,21777436140019;124,85122226630452;641,6211432233649;182,86690878017518
18:55:09.590;0;Wrist;1;2446;10,2;-23,66212385937071;-36,50587481307413;8,893484679708243;-36,50587481307413;-23,66212385937071;8,893484679708243;175,87817011017182;-406,5065462202826;123,44737083040864
18:55:09.590;0;Wrist;1;2447;10,2;-22,417945265053255;-37,05977431562243;-1,853108334032716;-37,05977431562243;-22,417945265053255;-1,853108334032716;130,95492416150395;-378,61262855922115;75,31968138676108
18:55:09.590;0;Wrist;1;2448;10,2;-16,930400631733146;-37,38278221991638;-13,103353793450728;-37,38278221991638;-16,930400631733146;-13,103353793450728;118,59492782372509;-309,0914639728996;44,98428296761986
18:55:09.590;0;Wrist;1;2449;10,2;-22,536381878109072;-37,7476615192114;-22,178680150761437;-37,7476615192114;-22,536381878109072;-22,178680150761437;118,93063142796106;-207,83104953154088;21,85125278481399
18:55:09.590;0;Wrist;1;2450;10,2;-28,466566972869046;-37,85054704428236;-21,793464079714347;-37,85054704428236;-28,466566972869046;-21,793464079714347;97,50663777581103;-113,0100405896176;-3,967406231879635
18:55:09.592;0;Wrist;1;2451;9,94;-28,36129146702475;-37,23204367198706;-21,209656437879573;-37,23204367198706;-28,36129146702475;-21,209656437879573;42,11554307687612;-34,363841669972835;-17,09036530655843
18:55:09.592;0;Wrist;1;2452;9,94;-24,336851863155005;-30,63550599688711;-18,752403332621235;-30,63550599688711;-24,336851863155005;-18,752403332621235;-8,301034577471237;25,360881374553667;-16,235847041230507
18:55:09.593;0;Wrist;1;2453;9,94;-19,270413068025757;-23,151293603320415;-16,333433790093693;-23,151293603320415;-19,270413068025757;-16,333433790093693;-32,685323648792995;63,57005523850215;-10,22370067445906
18:55:09.593;0;Wrist;1;2454;9,94;-16,503311258278146;-21,957359920041505;-15,500790620136113;-21,957359920041505;-16,503311258278146;-15,500790620136113;-60,121463667714465;89,0835291604358;-4,974517044587542
18:55:09.593;0;Wrist;1;2455;9,94;-18,332493438520462;-21,265882976775416;-16,929202780236213;-21,265882976775416;-18,332493438520462;-16,929202780236213;-85,66545609912411;134,52558977019564;-22,003845332193976
18:55:09.627;0;Mov;1;2481;9,96;-10,758555673390912;-16,08818704794458;28,11245498519852;-16,08818704794458;-10,758555673390912;28,11245498519852;207,12912381359294;455,7023834955901;148,38099307229834
18:55:09.628;0;Mov;1;2482;9,96;-0,957060457167272;-10,06468684194464;30,879556794946136;-10,06468684194464;-0,957060457167272;30,879556794946136;196,6917935728019;203,86364329966125;73,09183019501327
18:55:09.628;0;Mov;1;2483;9,96;5,413373210852382;9,200940542313914;19,227345728934598;9,200940542313914;5,413373210852382;19,227345728934598;68,57509079256569;82,18634601886043;69,5516830957976
18:55:09.628;0;Mov;1;2484;9,96;0;12,762401005584888;16,733006912442395;12,762401005584888;0,28472550388920254;16,733006912442395;1,1291848506118962;83,37656788842433;143,00973540452284
18:55:09.628;0;Mov;1;2485;9,96;-1,5827387787255471;1,42123482657857;23,969578768272957;1,42123482657857;-1,5827387787255471;23,969578768272957;-45,22843104342784;62,56294442579424;180,18127994628742
18:55:09.629;0;Mov;1;2486;9,96;-4,0746849917600025;-1,0599444324701681;28,689083147679067;-1,0599444324701681;-4,0746849917600025;28,689083147679067;-55,02487258522294;23,83495590075381;202,1851252784814
18:55:09.629;0;Mov;1;2487;9,96;-13,409613711966308;3,8940397350993377;27,867208243049408;3,8940397350993377;-13,409613711966308;27,867208243049408;-20,56947538682211;-25,482955412457656;232,15430158391064
18:55:09.629;0;Mov;1;2488;9,96;-18,91151539658803;6,621662038026063;22,164325006866665;6,621662038026063;-18,91151539658803;22,164325006866665;40,07080294198431;-96,28589739677115;230,90304269539476
18:55:09.630;0;Mov;1;2489;9,96;-17,44003494369335;9,736894207586902;17,19718008972442;9,736894207586902;-17,44003494369335;17,19718008972442;58,99227881710257;-150,36469618823816;188,26868495742667
18:55:09.630;0;Mov;1;2490;9,96;-18,63516457106235;10,447511024811549;14,936124759666738;10,447511024811549;-18,63516457106235;14,936124759666738;30,4269539475692;-189,55046235541857;125,64470351268044
18:55:09.665;0;Wrist;1;2456;10,01;-6,390771393475143;-7,283230365153966;10,348216193121129;-7,283230365153966;-6,390771393475143;10,348216193121129;-136,9060335093234;283,9136936552019;-152,31788079470198
18:55:09.665;0;Wrist;1;2457;10,01;9,004742767113255;-6,3345439008758815;28,881693090609456;-6,3345439008758815;9,004742767113255;28,881693090609456;-208,8381603442488;356,85293130283515;-396,95425275429545
18:55:09.665;0;Wrist;1;2458;10,01;0,6316598898091067;8,12185468611713;-14,459987372966705;8,12185468611713;0,6316598898091067;-14,459987372966705;-161,83965575121312;211,09653004547258;-73,00027466658528
18:55:09.665;0;Wrist;1;2459;10,01;-8,474770729697562;-7,780901898251289;1,878231147190771;-7,780901898251289;-8,474770729697562;1,878231147190771;-112,58278145695364;210,36408581804864;2,6245918149357585
18:55:09.665;0;Wrist;1;2460;10,01;0;-24,888357570116277;7,4267894337290565;-24,888357570116277;0,02990813928647725;7,4267894337290565;-144,6882534257027;60,274056215094454;-97,842341380047
18:55:09.688;0;Mov;1;2491;9,96;-21,518309198278757;10,720274018066958;11,859175199133274;10,720274018066958;-21,518309198278757;11,859175199133274;10,498367259743034;-225,50126651814327;69,27701651051363
18:55:09.688;0;Mov;1;2492;9,96;-20,112626651814324;12,984918134098331;7,360991527298807;12,984918134098331;-20,112626651814324;7,360991527298807;20,844141972106083;-240,5163731803339;20,722067934202094
18:55:09.688;0;Mov;1;2493;9,96;-16,503311258278146;13,449092265083774;5,876351397747734;13,449092265083774;-16,503311258278146;5,876351397747734;19,440290536210213;-238,92941068758202;-20,905178991058076
18:55:09.688;0;Mov;1;2494;9,96;-14,572442358165228;10,47143753624073;6,949455149235511;10,47143753624073;-14,572442358165228;6,949455149235511;-29,175695059053314;-250,52644428846097;-63,753166295358135
18:55:09.688;0;Mov;1;2495;9,96;-13,44669942320017;9,491647465437788;5,4660114406262394;9,491647465437788;-13,44669942320017;5,4660114406262394;-72,96975615710929;-277,1385845515305;-100,68056276131473
18:55:09.710;0;Wrist;1;2461;10,08;-0,527579612777337;-6,601324789422285;9,915146145512253;-6,601324789422285;-0,527579612777337;9,915146145512253;-96,8352305673391;35,46250801110874;-72,48146000549333
18:55:09.710;0;Wrist;1;2462;10,08;-5,452852240821558;0;3,1068574613940854;0,06340525826765496;-5,452852240821558;3,1068574613940854;-51,1490218817713;16,663106173894466;-19,104586931974243
18:55:09.710;0;Wrist;1;2463;10,08;2,5074984931485944;-5,449262977996154;0;-5,449262977996154;2,5074984931485944;-0,236872466129223;-22,858363597521898;7,354960783715323;-37,81243324076052
18:55:09.710;0;Wrist;1;2464;10,08;4,17039103747673;-0,9367229701376385;0,6280709250160222;-0,9367229701376385;4,17039103747673;0,6280709250160222;-30,487990966521195;3,448591570787683;-22,91940061647389
18:55:09.710;0;Wrist;1;2465;10,08;1,0372143419827875;1,9990601252784814;1,8638752880184333;1,9990601252784814;1,0372143419827875;1,8638752880184333;-36,74428540910062;-0,9460737937559129;-31,128879665517136
18:55:09.711;0;Wrist;1;2466;9,85;0,727365935525834;-1,8746422420041504;0;-1,8746422420041504;0,727365935525834;0,43306986878948334;-26,52058473464156;3,5096285897396773;-35,98132267220069
18:55:09.712;0;Wrist;1;2467;9,85;0;-1,853108334032716;0,827857307370983;-1,853108334032716;0,23089083827192755;0,827857307370983;-19,165623950926236;3,5401470992156745;-26,490066225165563
18:55:09.713;0;Wrist;1;2468;9,85;0,9642384463599047;0;1,2728904318750571;0,16628926337378308;0,9642384463599047;1,2728904318750571;-15,045625171666616;9,521774956511123;-19,409772026734213
18:55:09.713;0;Wrist;1;2469;9,85;1,5911130100405897;0;0,9056184695158238;0,3708609271523179;1,5911130100405897;0,9056184695158238;-10,52888576921903;17,578661458174384;-21,72917874691
18:55:09.713;0;Wrist;1;2470;9,85;2,1713309121982483;0,5754326356357006;0,9606494815668203;0,5754326356357006;2,1713309121982483;0,9606494815668203;-10,254219183935056;27,863399151585437;-26,123844111453597
18:55:09.748;0;Mov;1;2496;9,96;-9,467720954008605;9,940269554734947;5,099936197241127;9,940269554734947;-9,467720954008605;5,099936197241127;-94,94308297982727;-292,76406140324104;-120,39551988280893
18:55:09.748;0;Mov;1;2497;9,96;-5,791412186803797;7,180346270638142;6,450587672048097;7,180346270638142;-5,791412186803797;6,450587672048097;-118,28974272896512;-313,85235145115513;-124,9732963042085
18:55:09.749;0;Mov;1;2498;9,96;-4,004101878414258;4,055543687246315;6,889638870662557;4,055543687246315;-4,004101878414258;6,889638870662557;-146,33625293740653;-346,4461195715201;-119,26633503219703
18:55:09.749;0;Mov;1;2499;9,96;-2,8005982581560716;2,2849818414868617;6,900406182287057;2,2849818414868617;-2,8005982581560716;6,900406182287057;-166,41743217261268;-378,49055452131716;-104,19019135105441
18:55:09.749;0;Mov;1;2500;9,96;-3,055415652562029;0,9127963991019928;6,643196184423353;0,9127963991019928;-3,055415652562029;6,643196184423353;-180,88320566423536;-406,3844721823786;-86,30634479812007
18:55:09.778;0;Mov;1;2501;9,91;-4,6106386570329905;-1,3327067104480117;5,262636093478195;-1,3327067104480117;-4,6106386570329905;5,262636093478195;-191,59520249031038;-424,5429853205969;-86,15375225074007
18:55:09.778;0;Mov;1;2502;9,91;-5,497116000854518;-3,7827816476943266;3,5243752288888213;-3,7827816476943266;-5,497116000854518;3,5243752288888213;-198,49238563188572;-424,48194830164493;-106,63167210913419
18:55:09.778;0;Mov;1;2503;9,91;-7,888571199682607;-5,975646229438154;1,9009613568910795;-5,975646229438154;-7,888571199682607;1,9009613568910795;-203,95519882808924;-402,53913998840295;-145,8174382763146
18:55:09.778;0;Mov;1;2504;9,91;-9,639991264076663;-10,989447271645252;1,7585985900448622;-10,989447271645252;-9,639991264076663;1,7585985900448622;-209,57060457167273;-367,6259651478622;-204,74868007446517
18:55:09.778;0;Mov;1;2505;9,91;-1,9308694961775568;-13,013629375591297;1,0144841322824794;-13,013629375591297;-1,9308694961775568;1,0144841322824794;-230,3842280343028;-323,8929410687582;-266,48762474440747
18:55:09.803;0;Wrist;1;2471;10,09;1,3745781054490798;0;1,6928006836146123;0,28831446868228705;1,3745781054490798;1,6928006836146123;-13,458662678914761;43,214209418012025;-33,32621234778893
18:55:09.803;0;Wrist;1;2472;10,09;1,8172185668889431;0,8613544114505448;2,6115787701803646;0,8613544114505448;1,8172185668889431;2,6115787701803646;-18,79940183721427;69,18546098208563;-42,26813562425611
18:55:09.803;0;Wrist;1;2473;10,09;2,39265114291818;0;3,082930949964904;0,18064516725096896;2,39265114291818;3,082930949964904;-27,92443617053743;107,5472273934141;-51,51524399548326
18:55:09.803;0;Wrist;1;2474;10,09;1,721512521172216;0;3,4621663468581194;-0,32540056735816525;1,721512521172216;3,4621663468581194;-42,81746879482406;155,2171391949217;-62,13568529313029
18:55:09.803;0;Wrist;1;2475;10,09;2,0505021725363934;1,0635334568697166;3,575817276146733;1,0635334568697166;2,0505021725363934;3,575817276146733;-58,50398266548662;204,3519394512772;-73,06131168553728
18:55:09.872;0;Wrist;1;2476;10;1,6030762657551805;1,9870968695638904;3,604528994491409;1,9870968695638904;1,6030762657551805;3,604528994491409;-74,52620014038514;246,19281594286934;-80,84353160191657
18:55:09.872;0;Wrist;1;2477;10;0,9869685964537492;2,0170050088503677;3,5578723925748466;2,0170050088503677;0,9869685964537492;3,5578723925748466;-89,41923276467178;280,3735465559862;-83,52916043580431
18:55:09.872;0;Wrist;1;2478;10;1,191540245330668;1,6353771277123326;3,256398157826472;1,6353771277123326;1,191540245330668;3,256398157826472;-105,65507980590228;307,8096865749077;-81,20975371562852
18:55:09.872;0;Wrist;1;2479;10;1,4224311283074436;1,953599705877865;3,337748344370861;1,953599705877865;1,4224311283074436;3,337748344370861;-122,19611194189275;331,24790185247355;-80,53834650715659
18:55:09.872;0;Wrist;1;2480;10;2,7970092337565235;2,2263619838557083;3,324588906140324;2,2263619838557083;2,7970092337565235;3,324588906140324;-136,32618182927945;351,3901181066317;-83,22397534104434
18:55:09.872;0;Wrist;1;2481;9,89;3,6069215979491562;2,179705143513291;3,4956632721182896;2,179705143513291;3,6069215979491562;3,4956632721182896;-144,7492904446547;370,98300119022184;-94,48530533768731
18:55:09.872;0;Wrist;1;2482;9,89;4,353428659169286;2,283785658970916;4,19312112796411;2,283785658970916;4,353428659169286;4,19312112796411;-157,17032380138554;395,1231421857357;-110,11078218939787
18:55:09.873;0;Wrist;1;2483;9,89;5,906259537034211;2,3579577967162084;4,916898098696859;2,3579577967162084;5,906259537034211;4,916898098696859;-182,19550157170323;419,7210608233894;-125,79729606006043
18:55:09.873;0;Wrist;1;2484;9,89;5,997180375835444;2,696517981124302;5,364323767052217;2,696517981124302;5,997180375835444;5,364323767052217;-205,5116428113651;450,39216284676655;-143,19284646137882
18:55:09.873;0;Wrist;1;2485;9,89;1,9476180780205694;1,833967148731956;7,369365520187994;1,833967148731956;1,9476180780205694;7,369365520187994;-226,44734031189915;485,9462263863033;-162,0838038270211
18:55:09.873;0;Mov;1;2506;9,98;15,470882480849635;-18,949797051911986;12,803076456495864;-18,949797051911986;15,470882480849635;12,803076456495864;-283,8831751457259;-275,52110354930267;-307,5045014801477
18:55:09.873;0;Mov;1;2507;9,98;18,387524033326212;-33,03533661915952;14,939714499343852;-33,03533661915952;18,387524033326212;14,939714499343852;-236,9151890621662;-311,7770928067873;-223,51756340220345
18:55:09.873;0;Mov;1;2508;9,98;20,61388554033021;-30,98483230079043;5,974449808496353;-30,98483230079043;20,61388554033021;5,974449808496353;-181,7072054200873;-352,3667104098636;-141,39225440229498
18:55:09.873;0;Mov;1;2509;9,98;14,987567522202216;-30,531426435132907;-2,206024496826075;-30,531426435132907;14,987567522202216;-2,206024496826075;-139,71373638111515;-338,9385662404248;-100,37537766655477
18:55:09.873;0;Mov;1;2510;9,98;7,420807805871761;-34,72933133945738;-11,54693460646382;-34,72933133945738;7,420807805871761;-11,54693460646382;-91,64708395641956;-298,8982818079165;-84,44471572008423
18:55:09.898;0;Mov;1;2511;9,82;11,068404377880185;-35,12052903836177;-17,619483779412214;-35,12052903836177;11,068404377880185;-17,619483779412214;-96,53004547257912;-234,26007873775444;-92,53212073122349
18:55:09.898;0;Mov;1;2512;9,82;15,589319093905454;-31,925145725882746;-18,313352610858487;-31,925145725882746;15,589319093905454;-18,313352610858487;-113,68144779808954;-151,64647358623006;-95,37034211249123
18:55:09.898;0;Mov;1;2513;9,82;19,47139461958678;-29,905747398297066;-16,059474852748192;-29,905747398297066;19,47139461958678;-16,059474852748192;-109,98870815149388;-77,48649555955687;-82,67464217047639
18:55:09.898;0;Mov;1;2514;9,82;18,31574449903867;-25,555908001953185;-15,55223242896817;-25,555908001953185;18,31574449903867;-15,55223242896817;-74,28205206457717;-18,921475875118258;-57,03909421063875
18:55:09.898;0;Mov;1;2515;9,82;14,480325098422194;-19,90925130466628;-14,761461607715079;-19,90925130466628;14,480325098422194;-14,761461607715079;-33,600878933072906;31,769768364513077;-58,04620502334666
18:55:09.928;0;Mov;1;2516;9,94;13,000470175786615;-15,21247653889584;-12,995684492019409;-15,21247653889584;13,000470175786615;-12,995684492019409;-3,5706656086916717;73,18338572344126;-80,81301309244057
18:55:09.928;0;Mov;1;2517;9,94;11,255030785546435;-10,259688673055209;-10,588678205206458;-10,259688673055209;11,255030785546435;-10,588678205206458;16,937772759178443;108,676412244026;-99,64293343913083
18:55:09.929;0;Mov;1;2518;9,94;12,178594317453536;-8,597992072817163;-13,739799188207648;-8,597992072817163;12,178594317453536;-13,739799188207648;31,22043519394513;129,1543321024201;-115,2989288003174
18:55:09.929;0;Mov;1;2519;9,94;24,143045976134527;-21,797051911984617;-25,655201879940183;-21,797051911984617;24,143045976134527;-25,655201879940183;38,57539597766045;146,24469740897854;-112,67433698538163
18:55:09.929;0;Mov;1;2520;9,94;-0,7572740748123111;-36,01777321695609;20,04204306161687;-36,01777321695609;-0,7572740748123111;20,04204306161687;200,59816278572956;408,3681752983184;76,17419965208899
18:55:09.992;0;Mov;1;2521;9,96;-8,30848109378338;0;-8,07639450514237;0,48331555471205784;-8,30848109378338;-8,07639450514237;268,5628833887753;218,23786126285592;475,9361552781762
18:55:09.992;0;Mov;1;2522;9,96;2,1868831923123873;11,257423627430036;1,6246101737266152;11,257423627430036;2,1868831923123873;1,6246101737266152;103,76293221839046;99,79552598651082;91,43345439008759
18:55:09.992;0;Mov;1;2523;9,96;-21,62478064821314;-16,610980559709464;0;-16,610980559709464;-21,62478064821314;0,2129459547000412;148,9608447523423;167,85180211798456;3,357036042359691
18:55:09.992;0;Mov;1;2524;9,96;12,688229583117161;-7,349028271584216;4,921683305612354;-7,349028271584216;12,688229583117161;4,921683305612354;121,61626026184881;35,00473036896878;17,73125400555437
18:55:09.992;0;Mov;1;2525;9,96;-1,873445940275277;-0,8338389352282785;0,6950651927816095;-0,8338389352282785;-1,873445940275277;0,6950651927816095;76,47938474684896;13,977477340006715;27,741325113681448
18:55:10.040;0;Wrist;1;2486;10,39;0;-5,621533764915921;14,010169339579456;-5,621533764915921;-0,29190343347537157;14,010169339579456;-198,70601519821773;482,83333841975156;-174,07757805108798
18:55:10.040;0;Wrist;1;2487;10,39;4,330698568681906;-15,121555223242897;16,832300790429397;-15,121555223242897;4,330698568681906;16,832300790429397;-140,2325510422071;389,84344004638814;-138,37092196417126
18:55:10.040;0;Wrist;1;2488;10,39;0;-12,543473616748559;20,055202261421552;-12,543473616748559;0,21174962316793572;20,055202261421552;-95,27878658406324;275,0633259071627;-116,82485427411726
18:55:10.040;0;Wrist;1;2489;10,39;4,140482898190252;-1,3530441974776453;17,289298303170874;-1,3530441974776453;4,140482898190252;17,289298303170874;-71,07760856959746;191,99194311349834;-106,32648701437422
18:55:10.041;0;Wrist;1;2490;10,39;2,2514846778008364;6,132364974669637;26,279684972685935;6,132364974669637;2,2514846778008364;26,279684972685935;-33,6924344615009;150,54780724509416;-100,98574785607471
18:55:10.041;0;Wrist;1;2491;10,2;6,6264472449415575;3,9801753669850766;26,321556367687002;3,9801753669850766;6,6264472449415575;26,321556367687002;-3,47911008026368;72,26783043916136;-104,06811731315042
18:55:10.041;0;Wrist;1;2492;10,2;17,533347193823055;-0,7656483657338176;28,785987044892728;-0,7656483657338176;17,533347193823055;28,785987044892728;-34,60798974578081;15,472884304330577;-86,06219672231208
18:55:10.041;0;Wrist;1;2493;10,2;21,536254081850643;2,9142491874446854;27,240333262123478;2,9142491874446854;21,536254081850643;27,240333262123478;-65,157017731254;-37,11050752281258;-41,53569139683218
18:55:10.041;0;Wrist;1;2494;10,2;23,32476081118198;8,228327089754936;24,257894756920074;8,228327089754936;23,32476081118198;24,257894756920074;-108,40174565874203;-91,4029358806116;18,18903164769433
18:55:10.041;0;Wrist;1;2495;10,2;17,641016495254373;9,873274750511184;18,84691343424787;9,873274750511184;17,641016495254373;18,84691343424787;-99,61241492965483;-150,42573320719015;110,20233771782586
