Frecuencia (Hz);100
time;timespan;canal;id;sample;gap;accX;accY;accZ;rawAccX;rawAccY;rawAccZ;rawGirX;rawGirY;rawGirZ
18:45:15.598;0;Mov2;1;3688;9;0,7201880059396649;0,8505875170712912;0;0,8505875170712912;0,7201880059396649;0,4857081879730369;-0,5798516800439466;-1,1902218695638904;-1,4343699453718681
18:45:15.599;0;Mov2;1;3689;10;0,7022431223677785;0,8781029932935576;0,5000640769486069;0,8781029932935576;0,7022431223677785;0,5000640769486069;-0,4882961516159551;-1,2512588885158848;-1,5259254737998595
18:45:15.599;0;Mov2;1;3690;10;0,7369365877826777;0,8948515155301066;0;0,8948515155301066;0,7369365877826777;0,4845118564409314;-0,5798516800439466;-1,1291848506118962;-1,4343699453718681
18:45:15.599;0;Wrist;1;3667;9;0;0;0;0,0346934430624752;-0,29668875960379343;0,0358897671437727;4,852443006683553;-4,272591326639607;-1,9837031159398175
18:45:15.600;0;Wrist;1;3668;9;0;0;0;0,03349711525577372;-0,28831446868228705;0,04426404688906713;4,8829615161595505;-3,7842951750236518;-1,922666096987823
18:45:15.602;0;Wrist;1;3669;10;0;0;0;0,07776116214484084;-0,3170262764366588;0,02990813928647725;4,974517044587542;-3,1128879665517135;-1,8616290780358287
18:45:15.603;0;Wrist;1;3670;9;0;0;0;0,1184362330646115;-0,3337748284764397;0,009570604757942918;4,516739402447585;-2,0142216254158147;-1,4343699453718681
18:45:15.604;0;Wrist;1;3671;10;0;0;0;0,08852809377813425;-0,3517197120483261;0,04546037097036462;4,272591326639607;-1,0681478316599018;-0,9155552842799157
18:45:15.605;0;Mov;1;3680;10;0;-3,475325785088656;-0,5144199957274087;-3,475325785088656;0,15671865582178715;-0,5144199957274087;0,8850367748039186;0,27466658528397475;1,0376293221839046
18:45:15.605;0;Mov;1;3681;10;0;-3,4131169030579547;0;-3,4131169030579547;0,026319163317180778;-0,478530228583636;0,8239997558519242;0,3967406231879635;0,9155552842799157
18:45:15.605;0;Mov;1;3682;8;0;-3,454988298059023;-0,5012604382839442;-3,454988298059023;0,08613544561553926;-0,5012604382839442;1,1597033600878932;0,18311105685598317;1,098666341135899
18:45:15.605;0;Mov2;1;3691;10;0,7094210519539476;0,8649433762436293;0;0,8649433762436293;0,7094210519539476;0,48211922317995237;-0,7629627368999298;-0,9765923032319102;-1,4954069643238623
18:45:15.606;0;Mov2;1;3692;9;0,6807092740028077;0,8637470745147557;0;0,8637470745147557;0,6807092740028077;0,45580004868655966;-0,4272591326639607;-1,1902218695638904;-1,4648884548478653
18:45:15.606;0;Mov2;1;3693;10;0,7429182156399732;0,8709250041009247;0;0,8709250041009247;0,7429182156399732;0,4498184208292642;-0,640888698995941;-1,0681478316599018;-1,3428144169438765
18:45:15.606;0;Wrist;1;3672;10;0;0;0;0,014355907602589877;-0,35770133990562153;0,038282419031771674;3,9063692129276406;-0,36622211371196634;0
18:45:15.607;0;Wrist;1;3686;11;0;0;0;-0,13279214439260537;-0,10408032918742562;-0,07536851398224585;-0,8545182653279214;1,586962492751854;0
18:45:15.608;0;Wrist;1;3687;9;0;0;0;-0,13757744071779535;-0,13757744071779535;-0,10168767357402264;0,18311105685598317;1,8005920590838342;-0,640888698995941
18:45:15.608;0;Wrist;1;3688;10;0;0;0;-0,09690236979802469;-0,13757744071779535;-0,08135014183954131;0,9765923032319102;1,3428144169438765;-1,5564439832758568
18:45:15.610;0;Mov;1;3683;11;0;-3,4454176458021792;-0,5311685775704215;-3,4454176458021792;0,03947874311306917;-0,5311685775704215;0,793481246375927;0,15259254737998595;0,8239997558519242
18:45:15.610;0;Mov;1;3684;10;0;-3,42986536568804;-0,5132236939985351;-3,42986536568804;0,10886562551261558;-0,5132236939985351;0,8850367748039186;0,09155552842799158;1,1597033600878932
18:45:15.611;0;Mov;1;3685;9;0;-3,469344157231361;-0,5168126587916196;-3,469344157231361;0,1315958128604999;-0,5168126587916196;0,8239997558519242;0,09155552842799158;0,8545182653279214
18:45:15.611;0;Mov2;1;3694;10;0,7213843076685384;0,8625507727858821;0;0,8625507727858821;0,7213843076685384;0,473744932258446;-0,4882961516159551;-1,1902218695638904;-1,3428144169438765
18:45:15.611;0;Mov2;1;3695;9;0,7058320871608631;0,8709250041009247;0;0,8709250041009247;0,7058320871608631;0,4761375953226569;-0,5188146610919523;-1,2512588885158848;-1,5564439832758568
18:45:15.612;0;Mov2;1;3696;10;0,7034394240966522;0,8757103302293466;0;0,8757103302293466;0,7034394240966522;0,45938904328287605;-0,45777764213995786;-1,3428144169438765;-1,5564439832758568
18:45:15.612;0;Mov2;1;3697;10;0,7297585985900449;0,8661397375789667;0;0,8661397375789667;0,7297585985900449;0,4546037171544542;-0,5798516800439466;-1,2512588885158848;-1,6174810022278512
18:45:15.612;0;Wrist;1;3689;10;0;0;0;-0,119632557145909;-0,16150395214697713;-0,08733176969683676;1,73955504013184;1,5259254737998595;-2,166814172795801
18:45:15.613;0;Wrist;1;3690;10;0;0;0;-0,12441786092190694;-0,1531296761270867;-0,0957060457167272;2,166814172795801;1,6174810022278512;-2,5940733054597613
18:45:15.613;0;Wrist;1;3691;10;0;0;0;-0,12082888867801446;-0,10168767357402264;-0,11365092928861355;2,166814172795801;0,8545182653279214;-3,1434064760277107
18:45:15.614;0;Mov;1;3686;11;0;-3,414313323999756;-0,5012604382839442;-3,414313323999756;0,03230079117447623;-0,5012604382839442;0,3967406231879635;0,15259254737998595;0,7629627368999298
18:45:15.614;0;Mov;1;3687;10;0;-3,447810249259926;-0,5132236939985351;-3,447810249259926;0,11604358490201651;-0,5132236939985351;0,8545182653279214;0,12207403790398877;0,9155552842799157
18:45:15.615;0;Mov;1;3688;9;0;-3,358085831400494;0;-3,358085831400494;0,03230079117447623;-0,4546037171544542;0,15259254737998595;0,030518509475997192;0,6103701895199438
18:45:15.616;0;Mov;1;3689;11;0;-3,4801112304300057;-0,5682546464430677;-3,4801112304300057;0,11125828112601856;-0,5682546464430677;1,098666341135899;-0,09155552842799158;0,9765923032319102
18:45:15.616;0;Mov;1;3690;10;0;-3,3879939706869715;-0,527579612777337;-3,3879939706869715;0,03349711525577372;-0,527579612777337;0,5798516800439466;0;0,45777764213995786
18:45:15.617;0;Mov;1;3691;9;0;-3,415509506515702;-0,5407391702208014;-3,415509506515702;0,08015381775824382;-0,5407391702208014;0,5188146610919523;-0,24414807580797754;0,793481246375927
18:45:15.635;0;Mov2;1;3698;10;0,7118137150181585;0,8709250041009247;0;0,8709250041009247;0,7118137150181585;0,473744932258446;-0,7324442274239327;-1,3428144169438765;-1,586962492751854
18:45:15.635;0;Mov2;1;3699;10;0,7369365877826777;0,8565691449285867;0;0,8565691449285867;0,7369365877826777;0,47972656011574144;-0,6103701895199438;-1,3122959074678793;-1,7090365306558428
18:45:15.636;0;Mov2;1;3700;9;0,7285622968611714;0,8338389352282785;0;0,8338389352282785;0,7285622968611714;0,49408247889454326;-0,5493331705679495;-1,2207403790398876;-1,4954069643238623
18:45:15.636;0;Mov2;1;3701;9;0,7165990411465804;0,8158940516563921;0;0,8158940516563921;0,7165990411465804;0,4761375953226569;-0,7324442274239327;-1,2207403790398876;-1,6785180211798456
18:45:15.636;0;Mov2;1;3702;10;0,7405255525757622;0,8458021909428693;0;0,8458021909428693;0,7405255525757622;0,45221108389347514;-0,5188146610919523;-1,3122959074678793;-1,3428144169438765
18:45:15.636;0;Mov;1;3692;11;0;-3,4226875553147984;-0,5132236939985351;-3,4226875553147984;0,0933133975541322;-0,5132236939985351;0,4882961516159551;-0,36622211371196634;0,9460737937559129
18:45:15.637;0;Mov;1;3693;10;0;-3,3449263931699575;-0,5347575423635059;-3,3449263931699575;0,08972441785943175;-0,5347575423635059;0,12207403790398877;-0,4882961516159551;0,7629627368999298
18:45:15.648;0;Mov2;1;3703;9;0,7213843076685384;0,8541764818643758;0;0,8541764818643758;0,7213843076685384;0,4474257577650533;-0,5798516800439466;-1,3122959074678793;-1,6785180211798456
18:45:15.648;0;Mov2;1;3704;10;0,710617413289285;0,7883785754341258;0;0,7883785754341258;0,710617413289285;0,46058534501174964;-0,4272591326639607;-1,098666341135899;-1,3428144169438765
18:45:15.649;0;Mov2;1;3705;10;0,764452064004944;0,8661397375789667;0;0,8661397375789667;0,764452064004944;0,48929718256935334;-0,5188146610919523;-1,4343699453718681;-1,3428144169438765
18:45:15.653;0;Mov2;1;3706;10;0,710617413289285;0,827857307370983;0;0,827857307370983;0,710617413289285;0,43306986878948334;-0,6714072084719382;-1,281777397991882;-1,4343699453718681
18:45:15.678;0;Mov2;1;3707;9;0,7560777730834376;0,8410168648144475;0;0,8410168648144475;0,7560777730834376;0,45580004868655966;-0,6714072084719382;-1,1902218695638904;-1,5564439832758568
18:45:15.679;0;Mov2;1;3708;10;0,7752189583841975;0,8314462721640675;0;0,8314462721640675;0,7752189583841975;0,468959635933256;-0,640888698995941;-1,281777397991882;-1,5564439832758568
18:45:15.680;0;Mov2;1;3709;10;0,7393291912404248;0,8493911557359538;0;0,8493911557359538;0,7393291912404248;0,43665883358256785;-0,7019257179479355;-1,0681478316599018;-1,5259254737998595
18:45:15.693;0;Mov;1;3694;9;0;-3,3963684404278696;-0,5132236939985351;-3,3963684404278696;0,04306772280776963;-0,5132236939985351;0,09155552842799158;-0,640888698995941;0,640888698995941
18:45:15.693;0;Mov;1;3695;11;0;-3,323392485198523;0;-3,323392485198523;0,06220893046095347;-0,46297800807596057;0,061037018951994385;-0,7019257179479355;0,8545182653279214
18:45:15.694;0;Mov;1;3696;10;0;-3,3437299722281564;0;-3,3437299722281564;0,05503097852236053;-0,48331555471205784;0,45777764213995786;-0,793481246375927;0,640888698995941
18:45:15.695;0;Mov;1;3697;9;0;-3,3592822523422954;-0,5491134611423079;-3,3592822523422954;0,07776116214484084;-0,5491134611423079;0,5798516800439466;-0,5798516800439466;0,9155552842799157
18:45:15.695;0;Mov;1;3698;10;0;-3,3425337897122103;-0,5287759145062105;-3,3425337897122103;0,1507370279644917;-0,5287759145062105;0,24414807580797754;-0,8545182653279214;0,6714072084719382
18:45:15.696;0;Mov;1;3699;10;0;-3,347318996627705;-0,5072420661412397;-3,347318996627705;-0,007177953801294938;-0,5072420661412397;0;-0,8239997558519242;0,6103701895199438
18:45:15.708;0;Mov2;1;3710;10;0,7154026798112431;0,8481948540070803;0;0,8481948540070803;0,7154026798112431;0,4581927117507706;-0,7019257179479355;-1,2207403790398876;-1,8311105685598315
18:45:15.708;0;Mov2;1;3711;9;0,7357402264473403;0,8290536090998566;0;0,8290536090998566;0,7357402264473403;0,44862208929715874;-0,9155552842799157;-1,0376293221839046;-1,6479995117038484
18:45:15.713;0;Mov2;1;3712;10;0,7560777730834376;0,8075197607348857;0;0,8075197607348857;0,7560777730834376;0,4270882409321879;-0,9155552842799157;-1,098666341135899;-1,6174810022278512
18:45:15.710;0;Mov;1;3700;9;0;-3,297671461569567;0;-3,297671461569567;0,0346934421311242;-0,49228799649800103;-0,07629627368999298;-0,8392590105899228;0,7629627368999298
18:45:15.723;0;Mov;1;3701;9;0;-3,2480239265114292;0;-3,2480239265114292;0,07656483806354335;-0,4773339268547624;-0,15259254737998595;-0,8545182653279214;0,9155552842799157
18:45:15.724;0;Mov;1;3702;10;0;-3,379619739371929;-0,532364879299295;-3,379619739371929;0,02990813928647725;-0,532364879299295;0,4272591326639607;-0,8545182653279214;0,6714072084719382
18:45:15.725;0;Mov;1;3703;10;0;-3,2659688100833155;0;-3,2659688100833155;0,028711815205179753;-0,45938904328287605;0,24414807580797754;-0,8239997558519242;1,0071108127079074
18:45:15.738;0;Mov2;1;3713;10;0,6938688314462722;0,8649433762436293;0;0,8649433762436293;0,6938688314462722;0,43665883358256785;-0,793481246375927;-1,1902218695638904;-1,4954069643238623
18:45:15.738;0;Mov2;1;3714;10;0,7548814713545641;0,7943602032914212;0;0,7943602032914212;0,7548814713545641;0,44144412990775783;-0,7629627368999298;-1,2207403790398876;-1,5564439832758568
18:45:15.739;0;Mov2;1;3715;10;0,764452064004944;0,8146977499275185;0;0,8146977499275185;0,764452064004944;0,40316172950300605;-0,8239997558519242;-1,098666341135899;-1,5259254737998595
18:45:15.745;0;Wrist;1;3692;10;0;0;0;-0,10527665326872311;-0,07656483806354335;-0,0957060457167272;2,380443739127781;0,36622211371196634;-3,47911008026368
18:45:15.763;0;Mov;1;3704;9;0;-3,3389447653126623;0;-3,3389447653126623;0,0717795342875454;-0,49168981583033233;0,6714072084719382;-0,5798516800439466;1,3428144169438765
18:45:15.763;0;Mov;1;3705;10;0;-3,258790999710074;-0,5012604382839442;-3,258790999710074;0,05144199882766007;-0,5012604382839442;0,4882961516159551;-0,5188146610919523;1,098666341135899
18:45:15.763;0;Mov;1;3706;10;0;-3,2217048116245004;-0,581414263492996;-3,2217048116245004;0,11604358490201651;-0,581414263492996;0,6714072084719382;-0,3967406231879635;1,4648884548478653
18:45:15.770;0;Mov2;1;3716;10;0,7381328895115512;0,769237330526902;0;0,769237330526902;0,7381328895115512;0,4223029446069979;-0,8239997558519242;-0,9460737937559129;-1,4648884548478653
18:45:15.770;0;Mov2;1;3717;10;0,7823969475768303;0,8099124237990967;0;0,8099124237990967;0,7823969475768303;0,46058534501174964;-0,7629627368999298;-1,0376293221839046;-1,281777397991882
18:45:15.771;0;Mov2;1;3718;10;0,727365935525834;0,7823969475768303;0;0,7823969475768303;0,727365935525834;0,44024782817888425;-0,7019257179479355;-0,8545182653279214;-1,1597033600878932
18:45:15.783;0;Mov;1;3707;9;0;-3,2205083906826992;-0,532364879299295;-3,2205083906826992;0,1339884610230949;-0,532364879299295;0,793481246375927;-0,36622211371196634;1,5564439832758568
18:45:15.783;0;Mov;1;3708;10;0;-3,2049563489944153;-0,537150205427717;-3,2049563489944153;0,07895748622613834;-0,537150205427717;1,0376293221839046;0;1,6479995117038484
18:45:15.784;0;Mov;1;3709;10;0;-3,2611836031678214;-0,5897884948080385;-3,2611836031678214;0,12441786092190694;-0,5897884948080385;1,4343699453718681;0,27466658528397475;1,8921475875118259
18:45:15.785;0;Mov;1;3710;10;0;-3,2097415559099094;0;-3,2097415559099094;0,0837427900021363;-0,47135229899746695;1,2207403790398876;0,7324442274239327;2,1362956633198036
18:45:15.798;0;Mov2;1;3719;10;0,7716299935911131;0,8063234590060121;0;0,8063234590060121;0,7716299935911131;0,44024782817888425;-0,6103701895199438;-0,8850367748039186;-1,281777397991882
18:45:15.798;0;Mov2;1;3720;10;0,7369365877826777;0,7776116214484085;0;0,7776116214484085;0,7369365877826777;0,4199102815427869;-0,7629627368999298;-0,9155552842799157;-1,0376293221839046
18:45:15.802;0;Mov2;1;3721;9;0,7381328895115512;0,7919675402272103;0;0,7919675402272103;0,7381328895115512;0,412732322153386;-0,7019257179479355;-0,9155552842799157;-0,8850367748039186
18:45:15.813;0;Mov;1;3711;10;0;-3,2492203474532304;0;-3,2492203474532304;-0,014355907602589877;-0,468959635933256;1,6479995117038484;0,9765923032319102;1,8921475875118259
18:45:15.813;0;Mov;1;3712;9;0;-3,3054476016266365;-0,5180089605204932;-3,3054476016266365;0,14475540010719626;-0,5180089605204932;1,73955504013184;0,9155552842799157;1,8616290780358287
18:45:15.817;0;Mov;1;3713;10;0;-3,256398157826472;0;-3,256398157826472;-0,0023926511894857296;-0,4773339268547624;0,9765923032319102;0,7324442274239327;1,3428144169438765
18:45:15.828;0;Mov2;1;3722;10;0,7417218543046358;0,7907712384983367;0;0,7907712384983367;0,7417218543046358;0,41632131674970246;-0,6103701895199438;-0,9765923032319102;-0,9765923032319102
18:45:15.830;0;Mov2;1;3723;10;0,7572740748123111;0,7704336918622394;0;0,7704336918622394;0,7572740748123111;0,44862208929715874;-0,6714072084719382;-0,9155552842799157;-0,8850367748039186
18:45:15.830;0;Mov2;1;3724;9;0,7189917042107914;0,7883785754341258;0;0,7883785754341258;0,7189917042107914;0,3900021422563097;-0,7324442274239327;-0,6714072084719382;-0,9155552842799157
18:45:15.844;0;Mov;1;3714;10;0;-3,257594578768273;-0,5012604382839442;-3,257594578768273;0,052638326634361556;-0,5012604382839442;1,1902218695638904;0,6714072084719382;1,3122959074678793
18:45:15.845;0;Mov;1;3715;10;0;-3,2372570917386394;-0,5084383678701132;-3,2372570917386394;0,0705832102062479;-0,5084383678701132;0,793481246375927;0,3967406231879635;1,3122959074678793
18:45:15.845;0;Mov;1;3716;9;0;-3,244434902111881;0;-3,244434902111881;0,052638326634361556;-0,48690451950514235;0,7629627368999298;0,45777764213995786;1,1902218695638904
18:45:15.859;0;Mov2;1;3725;11;0,7285622968611714;0,7764153197195349;0;0,7764153197195349;0,7285622968611714;0,41632131674970246;-0,640888698995941;-0,8850367748039186;-0,9765923032319102
18:45:15.859;0;Mov2;1;3726;10;0,7871822140987884;0,8003418311487167;0;0,8003418311487167;0,7871822140987884;0,4306772057252724;-0,6103701895199438;-0,9460737937559129;-1,0376293221839046
18:45:15.859;0;Mov2;1;3727;10;0,7465071804330576;0,769237330526902;0;0,769237330526902;0,7465071804330576;0,4139286536854915;-0,4882961516159551;-0,9765923032319102;-0,9765923032319102
18:45:15.874;0;Mov;1;3717;9;0;-3,233668067339091;0;-3,233668067339091;0,08493911408343378;-0,4964751121555223;0,8545182653279214;0,4272591326639607;1,0376293221839046
18:45:15.874;0;Mov;1;3718;10;0;-3,2516129509109777;0;-3,2516129509109777;-0,013159581658590389;-0,47135229899746695;0,7019257179479355;0,6103701895199438;0,8850367748039186
18:45:15.875;0;Mov;1;3719;9;0;-3,206152531510361;-0,5144199957274087;-3,206152531510361;0,1292031646979049;-0,5144199957274087;0,8850367748039186;0,36622211371196634;1,1597033600878932
18:45:15.889;0;Mov2;1;3728;9;0,7716299935911131;0,7776116214484085;0;0,7776116214484085;0,7716299935911131;0,44144412990775783;-0,7629627368999298;-0,8850367748039186;-1,1291848506118962
18:45:15.889;0;Mov2;1;3729;10;0,7417218543046358;0,766844727069155;0;0,766844727069155;0,7417218543046358;0,41153599062128055;-0,5798516800439466;-0,9765923032319102;-1,1902218695638904
18:45:15.889;0;Mov2;1;3730;10;0,7500961452261422;0,7477034821619312;0;0,7477034821619312;0,7500961452261422;0,4199102815427869;-0,6103701895199438;-1,1291848506118962;-1,1902218695638904
18:45:15.903;0;Mov;1;3720;10;0;-3,2085451349681082;0;-3,2085451349681082;-0,06101260637965598;-0,4569963802186651;0,6714072084719382;0,061037018951994385;1,0681478316599018
18:45:15.903;0;Mov;1;3721;10;0;-3,3066440225684377;0;-3,3066440225684377;-0,03349711525577372;-0,4653706711401715;1,098666341135899;0,18311105685598317;1,4954069643238623
18:45:15.904;0;Mov;1;3722;10;0;-3,19418927579577;0;-3,19418927579577;0,07895748622613834;-0,3852168459311197;1,403851435895871;0,4272591326639607;1,4954069643238623
18:45:15.918;0;Mov2;1;3731;9;0,7548814713545641;0,7919675402272103;0;0,7919675402272103;0,7548814713545641;0,4270882409321879;-0,7629627368999298;-1,0071108127079074;-1,1291848506118962
18:45:15.918;0;Mov2;1;3732;10;0,7548814713545641;0,7620594009407331;0;0,7620594009407331;0,7548814713545641;0,39598377011360514;-0,6714072084719382;-1,0681478316599018;-1,1902218695638904
18:45:15.919;0;Mov2;1;3733;10;0,7417218543046358;0,7512924469550157;0;0,7512924469550157;0,7417218543046358;0,412732322153386;-0,7629627368999298;-0,9765923032319102;-1,3428144169438765
18:45:15.933;0;Mov;1;3723;10;0;-3,1989747211371196;0;-3,1989747211371196;0,3098483170472579;-0,38760947919209876;2,1362956633198036;0,18311105685598317;1,2207403790398876
18:45:15.933;0;Mov;1;3724;9;0;-3,2420422986541335;0;-3,2420422986541335;-0,22132023071993165;-0,4881008510372478;3,295999023407697;0,061037018951994385;0,4272591326639607
18:45:15.934;0;Mov;1;3725;10;0;-3,140354625080111;0;-3,140354625080111;0,09809870133013016;-0,46776330440115055;4,364146855067599;1,0071108127079074;1,586962492751854
18:45:15.948;0;Mov2;1;3734;10;0,7548814713545641;0,7237769707327494;0;0,7237769707327494;0,7548814713545641;0,41153599062128055;-0,8239997558519242;-1,0376293221839046;-1,4343699453718681
18:45:15.948;0;Mov2;1;3735;9;0,7453108190977202;0,7500961452261422;0;0,7500961452261422;0,7453108190977202;0,4019653979709006;-0,7324442274239327;-1,1597033600878932;-1,281777397991882
18:45:15.949;0;Mov2;1;3736;10;0,774022656655324;0,7165990411465804;0;0,7165990411465804;0,774022656655324;0,3828241828669088;-0,7324442274239327;-1,1291848506118962;-1,1291848506118962
18:45:15.950;0;Mov2;1;3737;10;0,7417218543046358;0,7345439247184667;0;0,7345439247184667;0,7417218543046358;0,4019653979709006;-0,4882961516159551;-1,281777397991882;-1,3733329264198737
18:45:15.963;0;Mov;1;3726;10;0;-3,271950437940611;0;-3,271950437940611;-0,1064729773500206;-0,48690451950514235;3,6011841181676685;1,4648884548478653;0,09155552842799158
18:45:15.963;0;Mov;1;3727;10;0;-3,1965818792535172;0;-3,1965818792535172;0,0693868861249504;-0,45580004868655966;2,9602954191717274;2,7466658528397474;0,5188146610919523
18:45:15.965;0;Mov;1;3728;9;0;-3,1822260200811794;0;-3,1822260200811794;-0,17227089123107853;-0,4653706711401715;3,9063692129276406;3,051850947599719;-0,4272591326639607
18:45:15.978;0;Mov2;1;3738;10;0,7548814713545641;0,7381328895115512;0;0,7381328895115512;0,7548814713545641;0,4055543627639851;-0,793481246375927;-1,281777397991882;-1,5564439832758568
18:45:15.978;0;Mov2;1;3739;9;0,7859859123699149;0,783593249305704;0;0,783593249305704;0,7859859123699149;0,40675069429609056;-0,5493331705679495;-0,9460737937559129;-1,2512588885158848
18:45:15.980;0;Mov2;1;3740;10;0,7883785754341258;0,7512924469550157;0;0,7512924469550157;0,7883785754341258;0,3888058107242042;-0,793481246375927;-0,9765923032319102;-1,3733329264198737
18:45:15.988;0;Wrist;1;3693;10;0;0;0;-0,09929502541142765;-0,1064729773500206;-0,13518479255520036;2,838221381267739;-0,09155552842799158;-3,69273964659566
18:45:15.990;0;Wrist;1;3694;10;0;0;0;-0,08972441785943175;-0,13518479255520036;-0,16987822816686757;3,173924985503708;-0,09155552842799158;-3,662221137119663
18:45:15.991;0;Wrist;1;3695;10;0;0;0;-0,07656483806354335;-0,14954069643238624;-0,16389660030957212;2,9297769096957307;-0,4272591326639607;-3,6011841181676685
18:45:16.009;0;Mov;1;3729;11;0;-3,15590690519425;-0,579021600428785;-3,15590690519425;0,09690236979802469;-0,579021600428785;4,150517288735618;2,807702871791742;0,7629627368999298
18:45:16.010;0;Mov;1;3730;9;0;-3,1044648579363385;-0,5586840537926878;-3,1044648579363385;0,13279214439260537;-0,5586840537926878;3,47911008026368;2,410962248603778;0,9155552842799157
18:45:16.010;0;Mov;1;3731;10;0;-3,2348644882808926;-0,527579612777337;-3,2348644882808926;0,027515489261180266;-0,527579612777337;3,5401470992156745;1,6785180211798456;0,9460737937559129
18:45:16.010;0;Mov2;1;3741;10;0,7656483657338176;0,7237769707327494;0;0,7237769707327494;0,7656483657338176;0,4019653979709006;-0,7019257179479355;-0,9460737937559129;-1,2512588885158848
18:45:16.011;0;Mov2;1;3742;10;0,7309549599253823;0,7441145173688467;0;0,7441145173688467;0,7309549599253823;0,38043154960592973;-0,793481246375927;-0,9765923032319102;-1,3428144169438765
18:45:16.011;0;Mov2;1;3743;8;0,7704336918622394;0,7249733320680868;0;0,7249733320680868;0,7704336918622394;0,3864131774632252;-0,793481246375927;-0,9460737937559129;-1,4343699453718681
18:45:16.023;0;Mov;1;3732;10;0;-3,0506302072206792;-0,5024567400128178;-3,0506302072206792;0,08135014183954131;-0,5024567400128178;2,9908139286477247;1,73955504013184;1,3122959074678793
18:45:16.023;0;Mov;1;3733;10;0;-3,1858150444807274;-0,588592193079165;-3,1858150444807274;0,05503097852236053;-0,588592193079165;3,357036042359691;1,2207403790398876;1,586962492751854
18:45:16.024;0;Mov;1;3734;10;0;-3,097287047563097;-0,5491134611423079;-3,097287047563097;0,08135014183954131;-0,5491134611423079;2,410962248603778;0,7324442274239327;1,6785180211798456
18:45:16.038;0;Mov2;1;3744;10;0,769237330526902;0,6974577962393567;0;0,6974577962393567;0,769237330526902;0,37923521807382427;-0,793481246375927;-0,8850367748039186;-1,2512588885158848
18:45:16.038;0;Mov2;1;3745;10;0,8374279000213629;0,727365935525834;0;0,727365935525834;0,8374279000213629;0,3828241828669088;-0,8850367748039186;-0,9155552842799157;-1,2207403790398876
18:45:16.039;0;Mov2;1;3746;10;0,7776116214484085;0,708224750225074;0;0,708224750225074;0,7776116214484085;0,358897671437727;-0,7629627368999298;-0,8850367748039186;-1,1902218695638904
18:45:16.055;0;Mov;1;3735;10;0;-3,1188207171086764;-0,5443281350138859;-3,1188207171086764;0,0705832102062479;-0,5443281350138859;2,410962248603778;0,27466658528397475;1,8921475875118259
18:45:16.055;0;Mov;1;3736;10;0;-3,056611835077975;-0,5431318332850124;-3,056611835077975;0,0239265114291818;-0,5431318332850124;1,73955504013184;-0,3967406231879635;2,044740134891812
18:45:16.055;0;Mov;1;3737;10;0;-3,0147404400769067;-0,5634693799211097;-3,0147404400769067;0,13279214439260537;-0,5634693799211097;1,1902218695638904;-0,4882961516159551;2,4414807580797753
18:45:16.068;0;Mov2;1;3747;10;0,7907712384983367;0,7154026798112431;0;0,7154026798112431;0,7907712384983367;0,40316172950300605;-0,793481246375927;-0,793481246375927;-1,0681478316599018
18:45:16.068;0;Mov2;1;3748;9;0,7680410287980285;0,7070284484962004;0;0,7070284484962004;0,7680410287980285;0,39119847378841516;-0,7629627368999298;-0,8545182653279214;-1,1597033600878932
18:45:16.069;0;Mov2;1;3749;10;0,7883785754341258;0,7118137150181585;0;0,7118137150181585;0,7883785754341258;0,3900021422563097;-0,793481246375927;-0,9765923032319102;-1,1291848506118962
18:45:16.083;0;Mov;1;3738;10;0;-3,073360536133915;-0,5670583447141941;-3,073360536133915;0,0957060457167272;-0,5670583447141941;0,9460737937559129;-0,7019257179479355;1,9837031159398175
18:45:16.083;0;Mov;1;3739;10;0;-3,085323791848506;-0,5431318332850124;-3,085323791848506;0,027515489261180266;-0,5431318332850124;0,6714072084719382;-0,7324442274239327;1,922666096987823
18:45:16.084;0;Mov;1;3740;10;0;-3,112839089251381;-0,5204016235847041;-3,112839089251381;0,0023926511894857296;-0,5204016235847041;0,4272591326639607;-0,8545182653279214;2,288888210699789
18:45:16.098;0;Mov2;1;3750;10;0,7847896106410412;0,7070284484962004;0;0,7070284484962004;0,7847896106410412;0,4019653979709006;-0,8545182653279214;-1,0071108127079074;-1,0071108127079074
18:45:16.098;0;Mov2;1;3751;10;0,7309549599253823;0,7130100763534959;0;0,7130100763534959;0,7309549599253823;0,3923948053205206;-0,7324442274239327;-1,2207403790398876;-0,9765923032319102
18:45:16.100;0;Mov2;1;3752;10;0,7345439247184667;0,6807092740028077;0;0,6807092740028077;0,7345439247184667;0,3888058107242042;-0,9460737937559129;-1,1291848506118962;-1,0376293221839046
18:45:16.113;0;Mov;1;3741;10;0;-3,0649860663930175;-0,522794286648915;-3,0649860663930175;0;-0,522794286648915;0,15259254737998595;-0,9460737937559129;2,410962248603778
18:45:16.114;0;Mov;1;3742;10;0;-3,085323791848506;-0,5586840537926878;-3,085323791848506;0,009570604757942918;-0,5586840537926878;-0,3051850947599719;-0,9460737937559129;2,2583697012237924
18:45:16.114;0;Mov;1;3743;10;0;-3,0350779271065402;0;-3,0350779271065402;0;-0,4306772057252724;-0,5188146610919523;-1,1291848506118962;2,3194067201757864
18:45:16.128;0;Mov2;1;3753;9;0,7381328895115512;0,6866909018601032;0;0,6866909018601032;0,7381328895115512;0,415124985217597;-0,5493331705679495;-0,9765923032319102;-1,0376293221839046
18:45:16.128;0;Mov2;1;3754;10;0,7776116214484085;0,6998504593035676;0;0,6998504593035676;0,7776116214484085;0,35650503817674795;-0,4882961516159551;-1,1902218695638904;-0,8545182653279214
18:45:16.129;0;Mov2;1;3755;10;0,7417218543046358;0,7249733320680868;0;0,7249733320680868;0,7417218543046358;0,37564622347750787;-0,5798516800439466;-1,0071108127079074;-1,098666341135899
18:45:16.143;0;Mov;1;3744;10;0;-3,1271951868495744;0;-3,1271951868495744;-0,09690236979802469;-0,46058534501174964;-0,24414807580797754;-0,27466658528397475;1,586962492751854
18:45:16.144;0;Mov;1;3745;10;0;-3,0697715117343667;-0,5192053218558306;-3,0697715117343667;0,11125828112601856;-0,5192053218558306;0,030518509475997192;-0,12207403790398877;1,922666096987823
18:45:16.145;0;Mov;1;3746;9;0;-3,0494340247047336;0;-3,0494340247047336;0,07417218990094836;-0,4773339268547624;-0,4882961516159551;-0,061037018951994385;1,281777397991882
18:45:16.158;0;Mov2;1;3756;10;0,7632557026696066;0,7512924469550157;0;0,7512924469550157;0,7632557026696066;0,3660756308271279;-0,5798516800439466;-1,0376293221839046;-0,9155552842799157
18:45:16.158;0;Mov2;1;3757;9;0,7728263549264504;0,7118137150181585;0;0,7118137150181585;0,7728263549264504;0,35650503817674795;-0,7019257179479355;-1,0376293221839046;-1,2207403790398876
18:45:16.159;0;Mov2;1;3758;10;0,7249733320680868;0,6400341807306131;0;0,6400341807306131;0,7249733320680868;0,354112375112537;-0,7019257179479355;-1,2207403790398876;-1,1597033600878932
18:45:16.174;0;Mov;1;3747;11;0;-3,0781457430494097;-0,5144199957274087;-3,0781457430494097;0,052638326634361556;-0,5144199957274087;-0,24414807580797754;0;1,1902218695638904
18:45:16.174;0;Mov;1;3748;10;0;-3,0482376037629324;0;-3,0482376037629324;0,07417218990094836;-0,48690451950514235;-0,27466658528397475;-0,061037018951994385;1,0376293221839046
18:45:16.175;0;Mov;1;3749;9;0;-3,1032686754203924;-0,5012604382839442;-3,1032686754203924;-0,0945097216354297;-0,5012604382839442;-0,27466658528397475;0,4882961516159551;0,8850367748039186
18:45:16.188;0;Mov2;1;3759;10;0,7943602032914212;0,7309549599253823;0;0,7309549599253823;0,7943602032914212;0,4055543627639851;-0,36622211371196634;-1,1597033600878932;-1,1902218695638904
18:45:16.188;0;Mov2;1;3760;10;0,7572740748123111;0,6854945405247658;0;0,6854945405247658;0,7572740748123111;0,3780388865417188;-0,4882961516159551;-1,3122959074678793;-1,3122959074678793
18:45:16.189;0;Mov2;1;3761;10;0,8158940516563921;0,7130100763534959;0;0,7130100763534959;0,8158940516563921;0,3696645956202124;-0,7019257179479355;-0,9155552842799157;-1,4954069643238623
18:45:16.203;0;Mov;1;3750;11;0;-3,0314891411328473;0;-3,0314891411328473;0,18782311173875393;-0,4019653979709006;0,030518509475997192;0,6103701895199438;1,1902218695638904
18:45:16.203;0;Mov;1;3751;10;0;-3,10087583353679;0;-3,10087583353679;0;-0,49408247889454326;-0,36622211371196634;0,9765923032319102;0,27466658528397475
18:45:16.205;0;Mov;1;3752;9;0;-2,9908139286477247;-0,5527024259353923;-2,9908139286477247;0,18782311173875393;-0,5527024259353923;0,030518509475997192;1,0071108127079074;0,3967406231879635
18:45:16.218;0;Mov2;1;3762;10;0,7716299935911131;0,6938688314462722;0;0,6938688314462722;0,7716299935911131;0,39598377011360514;-0,7324442274239327;-1,1291848506118962;-1,4954069643238623
18:45:16.218;0;Mov2;1;3763;10;0,8493911557359538;0,6878872035889767;0;0,6878872035889767;0,8493911557359538;0,3744499217486343;-0,8850367748039186;-1,0376293221839046;-1,4648884548478653
18:45:16.219;0;Mov2;1;3764;10;0,7560777730834376;0,6161076693014313;0;0,6161076693014313;0,7560777730834376;0,3194189395008698;-0,9155552842799157;-1,0376293221839046;-1,73955504013184
18:45:16.225;0;Wrist;1;3696;10;0;0;0;-0,09809870133013016;-0,13757744071779535;-0,16509293184167761;2,9297769096957307;-0,6103701895199438;-3,7232581560716573
18:45:16.227;0;Wrist;1;3697;9;0;0;0;-0,13039949623001038;-0,15671865582178715;-0,1794488357188635;3,1128879665517135;-0,7324442274239327;-3,9979247413556322
18:45:16.229;0;Wrist;1;3710;9;0;0;0;-0,119632557145909;-0,10886562551261558;-0,20576799531064027;-1,1597033600878932;-0,640888698995941;-1,3122959074678793
18:45:16.230;0;Wrist;1;3735;10;0;0;0;-0,2153386028626362;-0,16628926337378308;-0,33257852674756616;-1,1902218695638904;-5,279702139347514;-2,8687398907437363
18:45:16.232;0;Wrist;1;3736;10;0;0;0;-0,26199529418889433;-0,13757744071779535;-0,3744499217486343;-2,197332682271798;-5,21866512039552;-2,563554795983764
18:45:16.234;0;Mov;1;3753;10;0;-3,079342163991211;0;-3,079342163991211;0,031104465230476736;-0,4270882409321879;-0,3967406231879635;0,5188146610919523;0,5493331705679495
18:45:16.234;0;Mov;1;3754;10;0;-3,076949322107608;0;-3,076949322107608;-0,0346934430624752;-0,4510147523613697;-0,3357036042359691;0,6714072084719382;0,24414807580797754
18:45:16.235;0;Mov;1;3755;10;0;-3,0913054197058014;-0,5407391702208014;-3,0913054197058014;0,12202521275931195;-0,5407391702208014;-0,030518509475997192;1,2512588885158848;0,3357036042359691
18:45:16.256;0;Mov2;1;3765;9;0,769237330526902;0,6364452159375286;0;0,6364452159375286;0,769237330526902;0,37564622347750787;-0,8850367748039186;-1,1902218695638904;-1,7090365306558428
18:45:16.263;0;Mov;1;3756;10;0;-3,137962021622364;0;-3,137962021622364;0,0466566987770661;-0,45938904328287605;0,12207403790398877;2,2278511917477952;0,12207403790398877
18:45:16.263;0;Mov;1;3757;10;0;-2,881948444700461;0;-2,881948444700461;0,0239265114291818;-0,41153599062128055;-0,793481246375927;2,0142216254158147;0,21362956633198035
18:45:16.264;0;Mov;1;3758;10;0;-3,0781457430494097;-0,5215979849200415;-3,0781457430494097;0,02273018548518231;-0,5215979849200415;0,36622211371196634;1,4954069643238623;0,27466658528397475
18:45:16.283;0;Mov2;1;3766;10;0,8242683425778985;0,6484084716521195;0;0,6484084716521195;0,8242683425778985;0,3708609271523179;-1,0376293221839046;-1,1597033600878932;-1,6479995117038484
18:45:16.283;0;Mov2;1;3767;9;0,8242683425778985;0,6711386813524277;0;0,6711386813524277;0,8242683425778985;0,39119847378841516;-1,0376293221839046;-1,281777397991882;-1,6174810022278512
18:45:16.283;0;Mov2;1;3768;10;0,818286714720603;0,6244819602229377;0;0,6244819602229377;0,818286714720603;0,3517197120483261;-1,2207403790398876;-1,1902218695638904;-1,7700735496078372
18:45:16.284;0;Mov2;1;3769;10;0,9462935627880185;0,6819055757316813;0;0,6819055757316813;0,9462935627880185;0,3935911070493942;-1,5564439832758568;-1,098666341135899;-1,6174810022278512
18:45:16.284;0;Mov2;1;3770;10;0,7357402264473403;0,6041444135868405;0;0,6041444135868405;0,7357402264473403;0,3660756308271279;-2,166814172795801;-0,4882961516159551;-1,3733329264198737
18:45:16.288;0;Wrist;1;3737;10;0;0;0;-0,24285409398651844;-0,16389660030957212;-0,4270882409321879;-3,051850947599719;-5,035554063539537;-2,044740134891812
18:45:16.289;0;Wrist;1;3760;10;0;-0,9104037956442458;-1,0587481307412947;-0,9104037956442458;-0,24524674214911343;-1,0587481307412947;-8,545182653279214;-25,849177526169623;7,629627368999298
18:45:16.290;0;Wrist;1;3761;10;0;-0,9881649577890865;-1,074300410855434;-0,9881649577890865;-0,07895748622613834;-1,074300410855434;-8,941923276467177;-28,931546983245337;7,354960783715323
18:45:16.291;0;Wrist;1;3762;9;0;-0,994146585646382;-1,123349735442671;-0,994146585646382;0,0466566987770661;-1,123349735442671;-8,362071596423231;-33,082064271980954;6,530961027863399
18:45:16.292;0;Wrist;1;3763;10;0;-0,881691958086642;-1,1281350615710928;-0,881691958086642;0,007177953801294938;-1,1281350615710928;-6,95822016052736;-36,65272988067263;5,676442762535478
18:45:16.293;0;Mov;1;3759;10;0;-3,0111514156773582;0;-3,0111514156773582;0,05383465071565905;-0,48929718256935334;-0,12207403790398877;1,7090365306558428;-0,030518509475997192
18:45:16.293;0;Mov;1;3760;10;0;-2,978850672933134;0;-2,978850672933134;0,025122837373181287;-0,43665883358256785;0,24414807580797754;1,5564439832758568;0,36622211371196634
18:45:16.294;0;Mov;1;3761;10;0;-3,0123478366191594;0;-3,0123478366191594;-0,025122837373181287;-0,4474257577650533;1,2207403790398876;1,8005920590838342;0,7324442274239327
18:45:16.310;0;Mov2;1;3771;9;0,8338389352282785;0,7333475633831293;0;0,7333475633831293;0,8338389352282785;0,4199102815427869;-1,922666096987823;-1,1291848506118962;-1,4648884548478653
18:45:16.310;0;Mov2;1;3772;10;0,8266610056421094;0,635248914208655;0;0,635248914208655;0,8266610056421094;0,417517618478576;-2,380443739127781;-1,0681478316599018;-1,6174810022278512
18:45:16.312;0;Mov2;1;3773;10;1,1951292697302163;0,6890835649243141;0;0,6890835649243141;1,1951292697302163;0,35770133990562153;-3,7537766655476545;-0,24414807580797754;-1,586962492751854
18:45:16.327;0;Mov;1;3762;10;0;-3,1188207171086764;-0,5036531013481551;-3,1188207171086764;0,01674855762788686;-0,5036531013481551;2,410962248603778;2,3499252296517836;1,3122959074678793
18:45:16.327;0;Mov;1;3763;10;0;-3,1152319311349834;0;-3,1152319311349834;-0,08493911408343378;-0,30745568378627885;2,8992584002197335;2,044740134891812;3,448591570787683
18:45:16.327;0;Mov;1;3764;9;0;-3,1259987659077733;-0,5072420661412397;-3,1259987659077733;0,0705832102062479;-0,5072420661412397;4,7303689687795645;2,075258644367809;5,371257667775506
18:45:16.342;0;Mov2;1;3774;10;0,532364879299295;0;0;0,45221108389347514;0,532364879299295;0,3433454509300516;-3,7537766655476545;-0,6714072084719382;-1,2207403790398876
18:45:16.342;0;Mov2;1;3775;9;0,7728263549264504;0,5945738209364605;0;0,5945738209364605;0,7728263549264504;0,34454178246215705;-3,357036042359691;-2,1057771538438064;-0,6103701895199438
18:45:16.343;0;Mov2;1;3776;10;0,5802179021576587;0,661568029095584;0;0,661568029095584;0,5802179021576587;0,363682967762917;-3,021332438123722;-2,563554795983764;-0,6103701895199438
18:45:16.343;0;Mov2;1;3777;10;0,6579790643024994;0,5120273326631978;0;0,5120273326631978;0,6579790643024994;0,354112375112537;-2,4414807580797753;-3,0823694570757163;-0,4272591326639607
18:45:16.353;0;Mov;1;3765;11;0;-3,0350779271065402;0;-3,0350779271065402;0;-0,4019653979709006;6,256294442579424;1,4343699453718681;6,927701651051363
18:45:16.353;0;Mov;1;3766;9;0;-2,9082675595873897;-0,6531937977805414;-2,9082675595873897;0,0705832102062479;-0,6531937977805414;5,676442762535478;1,6174810022278512;4,699850459303567
18:45:16.354;0;Mov;1;3767;10;0;-3,1140355101931823;0;-3,1140355101931823;0,0693868861249504;-0,4534073856223487;6,19525742362743;1,8005920590838342;1,7700735496078372
18:45:16.368;0;Mov2;1;3778;9;0,6268746232871486;0,6974577962393567;0;0,6974577962393567;0,6268746232871486;0,3349711600085452;-1,8921475875118259;-2,8992584002197335;0,18311105685598317
18:45:16.368;0;Mov2;1;3779;10;0,8757103302293466;0,7465071804330576;0;0,7465071804330576;0,8757103302293466;0,41153599062128055;-2,2278511917477952;-1,8005920590838342;0
18:45:16.369;0;Mov2;1;3780;10;0,6651570534951323;0,6436231455236976;0;0,6436231455236976;0,6651570534951323;0,3517197120483261;-1,8005920590838342;-3,2654805139316996;0,5493331705679495
18:45:16.383;0;Mov;1;3768;9;0;-2,7491562108981595;0;-2,7491562108981595;0,19739371929074984;-0,4976714436876278;5,401776177251503;1,7700735496078372;2,685628833887753
18:45:16.383;0;Mov;1;3769;9;0;-2,9058749561296424;0;-2,9058749561296424;-0,05742363041035951;-0,4534073856223487;6,134220404675435;1,098666341135899;4,66933194982757
18:45:16.384;0;Mov;1;3770;10;0;-2,8628071401867734;-0,7608630992118595;-2,8628071401867734;-0,11604358490201651;-0,7608630992118595;8,728293710135198;1,586962492751854;7,263405255287331
18:45:16.385;0;Mov;1;3771;9;0;-2,5768854239783927;0;-2,5768854239783927;0,37684255500961333;-0,3708609271523179;6,103701895199438;1,1291848506118962;4,943998535111545
18:45:16.398;0;Mov2;1;3781;9;0,6113224027794733;0,6639606921597949;0;0,6639606921597949;0,6113224027794733;0,417517618478576;-1,5259254737998595;-3,69273964659566;0,7324442274239327
18:45:16.398;0;Mov2;1;3782;10;0,6974577962393567;0,7512924469550157;0;0,7512924469550157;0,6974577962393567;0,36846829389133884;-1,1902218695638904;-4,089480269783624;1,1597033600878932
18:45:16.400;0;Mov2;1;3783;9;0,6854945405247658;0;0;0,4581927117507706;0,6854945405247658;0,29190343347537157;-0,8239997558519242;-5,066072573015534;1,2512588885158848
18:45:16.405;0;Wrist;1;3764;10;0;-0,7728263549264504;-1,1879513401440474;-0,7728263549264504;-0,05024567474636257;-1,1879513401440474;-5,951109347819452;-38,57539597766045;5,279702139347514
18:45:16.406;0;Wrist;1;3765;10;0;-0,6866909018601031;-1,2537492465742974;-0,6866909018601031;-0,09570604757942919;-1,2537492465742974;-5,96636860255745;-40,54383983886227;4,364146855067599
18:45:16.407;0;Wrist;1;3766;10;0;-0,6005554487937559;-1,3195471530045473;-0,6005554487937559;-0,1411664204124958;-1,3195471530045473;-5,981627857295449;-42,51228370006409;3,448591570787683
18:45:16.407;0;Wrist;1;3767;9;0;-0,6747276461455123;-1,3877376628925444;-0,6747276461455123;-0,18303781541356395;-1,3877376628925444;-6,042664876247444;-43,76354258857997;2,838221381267739
18:45:16.410;0;Wrist;1;3768;10;0;-0,7094210519539476;-1,5301004297387615;-0,7094210519539476;-0,14954069643238624;-1,5301004297387615;-6,2868129520554215;-44,5570238349559;1,8311105685598315
18:45:16.410;0;Wrist;1;3769;10;0;-0,727365935525834;-1,662892544328135;-0,727365935525834;-0,058619954491657;-1,662892544328135;-6,775109103671377;-47,42576372569964;0,7324442274239327
18:45:16.424;0;Mov;1;3772;10;0;-3,3042511806848354;-0,6137150062372204;-3,3042511806848354;-0,0023926511894857296;-0,6137150062372204;7,5685903500473035;0,4272591326639607;4,333628345591602
18:45:16.424;0;Mov;1;3773;10;0;-3,073360536133915;-0,5407391702208014;-3,073360536133915;-0,23089083827192755;-0,5407391702208014;6,714072084719382;0,9155552842799157;5,584887234107486
18:45:16.424;0;Mov;1;3774;9;0;-2,9058749561296424;0;-2,9058749561296424;-0,00837427881394343;-0,3971801016457106;8,14844203009125;0,5493331705679495;10,834070863979003
18:45:16.430;0;Mov2;1;3784;10;0,7704336918622394;0,5646656816499832;0;0,5646656816499832;0,7704336918622394;0,3852168459311197;0,5798516800439466;-5,340739158299509;2,380443739127781
18:45:16.430;0;Mov2;1;3785;10;0,8230719812425611;0;0;0,32540056735816525;0,8230719812425611;0,46058534501174964;1,922666096987823;-5,951109347819452;3,9063692129276406
18:45:16.430;0;Mov2;1;3786;10;0,710617413289285;0;0;0,4964751121555223;0,710617413289285;0,415124985217597;4,150517288735618;-9,857478560747094;6,2868129520554215
18:45:16.435;0;Wrist;1;3770;10;0;-0,7536851100192267;-1,7574022883159885;-0,7536851100192267;0,014355907602589877;-1,7574022883159885;-7,080294198431349;-49,83672597430341;0,18311105685598317
18:45:16.436;0;Wrist;1;3778;8;0;0;-3,219312208166753;-0,13039949623001038;0,09211707347283471;-3,219312208166753;-9,491256447035127;-79,89745780816065;-4,4557023834955904
18:45:16.437;0;Wrist;1;3779;10;0;0;-3,5937621597186196;0,007177953801294938;0,12322153684060945;-3,5937621597186196;-11,719107638782923;-83,19345683156834;-5,127109591967528
18:45:16.437;0;Wrist;1;3780;9;0;0;-3,9036103873561814;0,1890194432708594;0,16987822816686757;-3,9036103873561814;-13,36710715048677;-86,64204840235602;-5,7374797814874725
18:45:16.449;0;Wrist;1;3781;10;0;0;-4,189532341990417;0,412732322153386;0,19021577480296487;-4,189532341990417;-15,350810266426588;-90,09063997314371;-6,8666646320993685
18:45:16.450;0;Mov;1;3775;10;0;-2,407007002090518;0;-2,407007002090518;0,0346934430624752;-0,3828241828669088;6,042664876247444;1,5259254737998595;3,5096285897396773
18:45:16.450;0;Mov;1;3776;10;0;-3,033881744590594;-0,6376415176664022;-3,033881744590594;0,2990813928647725;-0,6376415176664022;8,423108615375225;1,4343699453718681;5,615405743583484
18:45:16.451;0;Mov;1;3777;10;0;-3,045845000305185;-0,6065370766510514;-3,045845000305185;0,3182226079687643;-0,6065370766510514;6,378368480483413;1,8005920590838342;3,967406231879635
18:45:16.462;0;Mov2;1;3787;9;0,8242683425778985;0;0;0,45221108389347514;0,8242683425778985;0,3780388865417188;6,714072084719382;-13,122959074678793;7,843256935331278
18:45:16.463;0;Mov2;1;3788;10;0,6771203092097232;0,5239905883777887;0;0,5239905883777887;0,6771203092097232;0,2859218056180761;8,178960539567248;-14,618366039002655;8,453627124851222
18:45:16.463;0;Mov2;1;3789;10;0,6555864012382885;0,7405255525757622;0;0,7405255525757622;0,6555864012382885;0,4246955778679769;9,613330484939116;-15,808587908566546;9,369182409131138
18:45:16.473;0;Mov;1;3778;10;0;-3,1271951868495744;0;-3,1271951868495744;0,12202521275931195;-0,3864131774632252;6,622516556291391;1,7700735496078372;4,7303689687795645
18:45:16.473;0;Mov;1;3779;9;0,5192053218558306;-4,481435686056093;0;-4,481435686056093;0,5192053218558306;-0,2799401777607807;8,819849238563188;1,3428144169438765;5,76799829096347
18:45:16.474;0;Mov;1;3780;10;-0,7584704361476485;-2,4584490493484297;-1,3470625696203498;-2,4584490493484297;-0,7584704361476485;-1,3470625696203498;34,02813806573687;1,7090365306558428;19,318216498306224
18:45:16.488;0;Mov2;1;3790;10;0,7680410287980285;0,9044221677869503;0;0,9044221677869503;0,7680410287980285;0,37684255500961333;9,88799707022309;-16,266365550706503;8,178960539567248
18:45:16.488;0;Mov2;1;3791;10;0,6854945405247658;0;0;0,36009400296983246;0,6854945405247658;0,36846829389133884;10,132145146031068;-16,51051362651448;7,599108859523301
18:45:16.489;0;Mov2;1;3792;9;0,8099124237990967;0,8326426334994049;0;0,8326426334994049;0,8099124237990967;0,31582994490455335;11,322367015594958;-18,25006866664632;9,094515823847164
18:45:16.495;0;Wrist;1;3782;10;0;0,7381328895115512;-4,327109782708212;0,7381328895115512;0,2464430736812189;-4,327109782708212;-17,517624439222388;-93,35612048707542;-7,9958494827112645
18:45:16.496;0;Wrist;1;3783;10;0;1,0240546653263956;-4,392907689138463;1,0240546653263956;0,3194189395008698;-4,392907689138463;-18,463698232978302;-97,04886013367107;-9,24710837122715
18:45:16.497;0;Wrist;1;3784;9;0;1,2645162005600146;-4,6070498710592975;1,2645162005600146;0,38043154960592973;-4,6070498710592975;-16,3274025696585;-101,87078463087863;-11,932737205114902
18:45:16.497;0;Wrist;1;3785;10;0;1,5025848939100315;-4,853493034150212;1,5025848939100315;0,45938904328287605;-4,853493034150212;-14,191106906338694;-107,27256080813014;-14,55732902005066
18:45:16.510;0;Wrist;1;3786;10;0;1,9129246126056703;-4,9061312639240695;1,9129246126056703;0,4534073856223487;-4,9061312639240695;-11,749626148258919;-110,38544877468185;-17,578661458174384
18:45:16.510;0;Mov;1;3781;10;0;-1,1472762468718527;0;-1,1472762468718527;0,22371287888252664;0,24165777735602892;7,354960783715323;3,1434064760277107;2,9908139286477247
18:45:16.511;0;Mov;1;3782;10;0;-3,4346508110293894;-1,5695792212820825;-3,4346508110293894;0,0598162785729545;-1,5695792212820825;17,181920834986418;2,9297769096957307;6,714072084719382
18:45:16.511;0;Mov;1;3783;9;0;-2,6259346293527024;0;-2,6259346293527024;-0,19260842296555986;-0,21055330653744622;0,9460737937559129;2,7771843623157446;5,3102206488235115
18:45:16.524;0;Mov2;1;3793;10;1,5253151036103396;1,2274300124744408;0;1,2274300124744408;1,5253151036103396;0,4474257577650533;8,6977752006592;-21,85125278481399;7,019257179479355
18:45:16.525;0;Mov2;1;3794;10;1,2322153386028627;0;0;0,44024782817888425;1,2322153386028627;-0,10886562551261558;4,852443006683553;-19,623401593066195;3,814813684499649
18:45:16.525;0;Mov2;1;3795;10;0,835035236957152;0;0;-0,22012391408944212;0,835035236957152;0,20576799531064027;7,080294198431349;-21,97332682271798;4,852443006683553
18:45:16.526;0;Wrist;1;3787;10;0;2,383080490661336;-4,888186380352184;2,383080490661336;0,29549242807168796;-4,888186380352184;-8,6977752006592;-112,70485549485763;-19,440290536210213
18:45:16.526;0;Wrist;1;3788;9;0;2,630720074694052;-4,837940515610217;2,630720074694052;0,16030763551648763;-4,837940515610217;-6,95822016052736;-114,74959562974944;-19,501327555162206
18:45:16.527;0;Wrist;1;3789;10;0;2,6642169999542222;-4,750608939634389;2,6642169999542222;0,1387737722499008;-4,750608939634389;-5,493331705679495;-115,90929898983734;-18,982512894070254
18:45:16.528;0;Wrist;1;3790;10;0;2,5553515160069584;-4,726682428205207;2,5553515160069584;-0,020337535459885328;-4,726682428205207;-2,4414807580797753;-117,58781701101718;-18,433179723502302
18:45:16.542;0;Mov;1;3784;10;-0,830249970435194;-2,4261483066042056;0;-2,4261483066042056;-0,830249970435194;-0,32540056735816525;7,141331217383343;3,173924985503708;8,14844203009125
18:45:16.543;0;Mov;1;3785;10;-0,7321512616542558;-2,9979919774468216;0;-2,9979919774468216;-0,7321512616542558;-0,3349711600085452;12,115848261970886;3,662221137119663;7,660145878475295
18:45:16.543;0;Mov;1;3786;9;-0,6376415176664022;-3,151121698278756;-0,6005554487937559;-3,151121698278756;-0,6376415176664022;-0,6005554487937559;13,519699697866756;4,394665364543596;8,423108615375225
18:45:16.551;0;Mov2;1;3796;10;1,1209571319849239;0;0;0,27635121296769616;1,1209571319849239;0,07656483806354335;7,843256935331278;-24,079103976561786;5,798516800439467
18:45:16.551;0;Mov2;1;3797;9;0,9068147712446974;0;0,5550950889996032;0,06220893046095347;0,9068147712446974;0,5550950889996032;8,57570116275521;-24,445326090273753;8,087405011139255
18:45:16.551;0;Mov2;1;3798;10;0,9020295047227394;0;0;0,2464430736812189;0,9020295047227394;0,24046144582392345;11,047700430310984;-28,107547227393415;12,329477828302865
18:45:16.556;0;Wrist;1;3791;10;0;2,4787865363780632;-4,538859122745445;2,4787865363780632;-0,1387737722499008;-4,538859122745445;-0,3051850947599719;-122,10455641346476;-18,341624195074314
18:45:16.557;0;Wrist;1;3792;10;0;2,567314771721549;-4,321128154850917;2,567314771721549;-0,07656483806354335;-4,321128154850917;2,197332682271798;-128,45240638447217;-17,60917996765038
18:45:16.558;0;Wrist;1;3793;10;0;2,7587268631550037;-3,925144295327616;2,7587268631550037;0,13638112408730582;-3,925144295327616;6,40888698995941;-136,57032990508745;-16,113773003326518
18:45:16.563;0;Mov;1;3787;10;-0,7297585985900449;-2,338816492202521;0;-2,338816492202521;-0,7297585985900449;-0,2942960965395825;12,085329752494888;4,577776421399578;10,101626636555071
18:45:16.564;0;Mov;1;3788;9;0;-2,7826533745841853;-0,710617413289285;-2,7826533745841853;-0,4426404614398633;-0,710617413289285;20,264290292062135;2,9297769096957307;12,604144413586841
18:45:16.576;0;Mov;1;3789;10;0;-3,149925277336955;-0,8565691449285867;-3,149925277336955;-0,2464430736812189;-0,8565691449285867;17,853328043458358;1,6174810022278512;11,810663167210913
18:45:16.578;0;Mov2;1;3799;10;0,5443281350138859;0,888869887672811;0;0,888869887672811;0,5443281350138859;0,24046144582392345;13,946958830530717;-28,107547227393415;14,435254982146672
18:45:16.578;0;Mov2;1;3800;10;0,6950651927816095;1,3075838972899563;0;1,3075838972899563;0,6950651927816095;0,17227089123107853;12,512588885158848;-23,926511429181797;13,794366283150731
18:45:16.579;0;Mov2;1;3801;10;0,8517838188001648;1,7968810798593098;0;1,7968810798593098;0,8517838188001648;-0,1339884610230949;10,254219183935056;-18,79940183721427;11,261329996642964
18:45:16.585;0;Wrist;1;3794;8;0;2,8137576963866087;-3,6978424367503893;2,8137576963866087;0,36009400296983246;-3,6978424367503893;7,629627368999298;-138,67610705893125;-15,2287362285226
18:45:16.586;0;Wrist;1;3795;10;0,8386242613567003;3,020722067934202;-3,2898953215124975;3,020722067934202;0,8386242613567003;-3,2898953215124975;10,589922788171025;-137,33329264198736;-12,787255470442824
18:45:16.587;0;Wrist;1;3796;10;0,8864772842150639;3,0913054197058014;-2,5182653279213842;3,0913054197058014;0,8864772842150639;-2,5182653279213842;13,183996093630787;-135,13595995971556;-13,91644032105472
18:45:16.599;0;Mov;1;3790;11;0;-2,915445369960631;-1,0683187829981384;-2,915445369960631;0,4474257577650533;-1,0683187829981384;14,618366039002655;1,098666341135899;12,878810998870815
18:45:16.599;0;Mov;1;3791;9;0;-2,9728690450758384;-1,1568468991286966;-2,9728690450758384;0,15911130398438214;-1,1568468991286966;7,9958494827112645;-1,3428144169438765;9,857478560747094
18:45:16.599;0;Mov;1;3792;10;0;-3,3556932279427474;-0,7261696337969603;-3,3556932279427474;-0,0478530228583636;-0,7261696337969603;2,2583697012237924;-2,380443739127781;8,972441785943175
18:45:16.608;0;Mov2;1;3802;9;0,6232856584940641;1,3709890810495315;0;1,3709890810495315;0,6232856584940641;-0,3780388865417188;7,72118289742729;-12,756736960966826;7,202368236335337
18:45:16.608;0;Mov2;1;3803;10;-1,0491775976973785;0;0;0,23806879766132846;-1,0491775976973785;-0,1866267951082644;7,354960783715323;-8,789330729087192;-1,281777397991882
18:45:16.611;0;Mov2;1;3804;10;0;0;0;0,2476394052133244;0,17346720786156805;0,290707131746498;10,925626392406995;-11,322367015594958;-2,5940733054597613
18:45:16.617;0;Wrist;1;3797;9;0;2,7216406750694295;-1,8985687534333324;2,7216406750694295;0,39957273490668965;-1,8985687534333324;19,47080904568621;-136,08203375347148;-12,878810998870815
18:45:16.618;0;Wrist;1;3798;10;0;2,0720358420819727;-1,5588122672963654;2,0720358420819727;-0,34095278786584066;-1,5588122672963654;26,306955168309578;-138,55403302102727;-11,749626148258919
18:45:16.618;0;Wrist;1;3799;10;-1,0001281538972138;1,5540269411679433;-1,0132878305536057;1,5540269411679433;-1,0001281538972138;-1,0132878305536057;29,81658375804926;-136,9365520187994;-11,658070619830928
18:45:16.622;0;Mov;1;3793;11;1,4487502431943724;-1,6473403834269233;-1,0085025044251839;-1,6473403834269233;1,4487502431943724;-1,0085025044251839;-0,9460737937559129;-0,8239997558519242;4,4557023834955904
18:45:16.623;0;Mov;1;3794;9;0,7118137150181585;-2,539799235892819;0;-2,539799235892819;0,7118137150181585;-0,2560136663315989;0,4882961516159551;-2,044740134891812;1,1291848506118962
18:45:16.624;0;Mov;1;3795;10;0;-2,4536638424329356;0;-2,4536638424329356;0,2631916257209998;-0,08135014183954131;-4,547257911923582;0,4272591326639607;2,2583697012237924
18:45:16.643;0;Mov2;1;3805;10;0;0;0;-0,040675070919770656;0,20457167868015075;0,0011963255947428648;8,301034577471237;-7,202368236335337;-7,17184972685934
18:45:16.643;0;Mov2;1;3806;9;1,4535355693227943;0,9642384463599047;0;0,9642384463599047;1,4535355693227943;0,1866267951082644;9,308145390179144;-7,080294198431349;-5,7374797814874725
18:45:16.643;0;Mov2;1;3807;10;2,433326355403302;1,6868190557573168;0;1,6868190557573168;2,433326355403302;0,15911130398438214;6,683553575243385;-4,547257911923582;-5,096591082491531
18:45:16.645;0;Wrist;1;3800;10;-1,1987182941297647;1,4918180591372416;0;1,4918180591372416;-1,1987182941297647;-0,40675069429609056;23,80443739127781;-132,05359050263985;-12,878810998870815
18:45:16.646;0;Wrist;1;3801;10;-0,7369365877826777;2,1067294267097996;0;2,1067294267097996;-0,7369365877826777;0,05503097852236053;15,472884304330577;-126,34662923062838;-11,62755211035493
18:45:16.647;0;Wrist;1;3802;10;0;2,8795556028168585;0;2,8795556028168585;0,08254646592083881;0,47135229899746695;11,993774224066897;-125,64470351268044;-10,376293221839045
18:45:16.657;0;Mov;1;3796;10;0;-3,1044648579363385;-0,6651570534951323;-3,1044648579363385;0,473744932258446;-0,6651570534951323;0,640888698995941;4,24207281716361;6,317331461531419
18:45:16.658;0;Mov;1;3797;10;2,0301644470809044;-3,274343041398358;-1,463106221579638;-3,274343041398358;2,0301644470809044;-1,463106221579638;-3,6317026276436657;3,4180730613116856;6,19525742362743
18:45:16.658;0;Mov;1;3798;10;0;-2,304123146000549;-0,6555864012382885;-2,304123146000549;-0,004785302378971459;-0,6555864012382885;-22,49214148380993;-2,8687398907437363;1,4954069643238623
18:45:16.668;0;Mov2;1;3808;10;2,2179877525406657;1,3374920365764336;0;1,3374920365764336;2,2179877525406657;0,2524247015385144;0,3051850947599719;0,4882961516159551;-7,93481246375927
18:45:16.668;0;Mov2;1;3809;10;1,9512071024201179;1,2262337107455672;0;1,2262337107455672;1,9512071024201179;0,03708609495047418;-4,1810357982116155;7,660145878475295;-7,17184972685934
18:45:16.672;0;Mov2;1;3810;10;1,2657125022888882;2,087588122196112;0;2,087588122196112;1,2657125022888882;-0,32540056735816525;-10,071108127079073;18,524735251930295;-9,7964415417951
18:45:16.675;0;Wrist;1;3803;10;0;2,6498611407818844;1,1520615730002746;2,6498611407818844;0,4462294560361797;1,1520615730002746;10,040589617603077;-119,96826075014496;-8,789330729087192
18:45:16.676;0;Wrist;1;3804;10;0;1,782525101474044;2,0098269600512713;1,782525101474044;0,22610554194673757;2,0098269600512713;11,169774468214973;-105,19730216376232;-5,920590838343455
18:45:16.677;0;Wrist;1;3805;9;-0,7201880059396649;1,1556504781868953;3,233668067339091;1,1556504781868953;-0,7201880059396649;3,233668067339091;17,761772515030366;-95,15671254615924;-6,134220404675435
18:45:16.696;0;Mov;1;3799;10;-1,2238411072878201;-2,7048922124393444;0;-2,7048922124393444;-1,2238411072878201;0,2715659166425062;-11,932737205114902;-3,448591570787683;3,448591570787683
18:45:16.696;0;Mov;1;3800;10;0;-2,6367017025513473;-0,6627643904309214;-2,6367017025513473;-0,23328348643452254;-0,6627643904309214;-5,981627857295449;-2,71614734336375;6,927701651051363
18:45:16.696;0;Mov;1;3801;10;-1,0240546653263956;-2,619953001495407;0;-2,619953001495407;-1,0240546653263956;-0,00598162785729545;-4,058961760307627;-2,3499252296517836;4,486220892971588
18:45:16.698;0;Mov2;1;3811;9;-0,8170903533852657;1,062337155140843;0;1,062337155140843;-0,8170903533852657;0,290707131746498;-16,876735740226447;27,61925107577746;-18,463698232978302
18:45:16.698;0;Mov2;1;3812;10;0;0,8493911557359538;0;0,8493911557359538;-0,4390514966467788;0,019141209515885837;-19,867549668874172;32,80739768669698;-24,811548203985716
18:45:16.699;0;Mov2;1;3813;10;0,5766289373645741;-1,0599444324701681;0;-1,0599444324701681;0,5766289373645741;0,33257852674756616;-18,921475875118258;31,006805627613147;-25,177770317697682
18:45:16.705;0;Wrist;1;3806;10;-1,9619739371929075;0;4,04956205938902;0,44024782817888425;-1,9619739371929075;4,04956205938902;18,15851313821833;-91,12826929532761;-8,911404766991181
18:45:16.706;0;Wrist;1;3807;10;-2,54099565683462;0;4,463490802484206;0,0957060457167272;-2,54099565683462;4,463490802484206;14,709921567430646;-85,97064119388409;-7,38547929319132
18:45:16.707;0;Wrist;1;3808;10;-2,0433241237372965;0;4,860671082949309;0,05024567474636257;-2,0433241237372965;4,860671082949309;14,099551377910704;-76,26575518051699;-6,042664876247444
18:45:16.729;0;Mov2;1;3814;10;0,764452064004944;0;0;0,05024567474636257;0,764452064004944;-0,052638326634361556;-12,421033356730858;25,75762199774163;-19,440290536210213
18:45:16.729;0;Mov2;1;3815;9;1,1939329680013429;0,7165990411465804;0;0,7165990411465804;1,1939329680013429;0,46417433960806603;-11,749626148258919;22,766808069093905;-17,639698477126377
18:45:16.730;0;Mov2;1;3816;10;0,7823969475768303;0;0;0,12561418500320445;0,7823969475768303;0,3265968988902707;-10,742515335551012;20,29480880153813;-14,831995605334635
18:45:16.730;0;Mov2;1;3817;10;0,8769066319582202;0;0;0,48331555471205784;0,8769066319582202;0,12561418500320445;-6,988738670003357;16,266365550706503;-10,284737693411055
18:45:16.735;0;Wrist;1;3809;10;-0,9953428873752556;0;5,338004890591144;-0,4199102815427869;-0,9953428873752556;5,338004890591144;12,756736960966826;-65,00442518387402;-6,530961027863399
18:45:16.736;0;Wrist;1;3810;10;0;-1,0635334568697166;5,74116632206183;-1,0635334568697166;-0,26438795725310527;5,74116632206183;13,428144169438765;-55,482650227362896;-7,72118289742729
18:45:16.737;0;Wrist;1;3811;10;0;-1,24298229258858;6,159880272072512;-1,24298229258858;-0,37684255500961333;6,159880272072512;15,015106662190618;-46,784875026703695;-9,643848994415112
18:45:16.743;0;Mov;1;3802;10;0;-2,152189846110416;-0,5909848561433759;-2,152189846110416;0,08733176969683676;-0,5909848561433759;0,8850367748039186;-2,410962248603778;4,24207281716361
18:45:16.743;0;Mov;1;3803;10;0;-2,5828670518356884;0;-2,5828670518356884;-0,14595171673768578;-0,32300790429395426;5,371257667775506;-1,8921475875118259;2,807702871791742
18:45:16.744;0;Mov;1;3804;10;0,5742362743003632;-3,0123478366191594;-0,6508011347163305;-3,0123478366191594;0,5742362743003632;-0,6508011347163305;6,74459059419538;0,4882961516159551;1,5259254737998595
18:45:16.745;0;Mov;1;3805;10;0,6185003323656423;-2,791027605899228;-0,6484084716521195;-2,791027605899228;0,6185003323656423;-0,6484084716521195;1,9837031159398175;1,922666096987823;1,1902218695638904
18:45:16.745;0;Mov;1;3806;9;0;-3,0913054197058014;0;-3,0913054197058014;0,04904935066506508;-0,3923948053205206;0,8850367748039186;3,448591570787683;1,1902218695638904
18:45:16.746;0;Mov;1;3807;10;0,5359538440923796;-2,713266443754387;-0,7620594009407331;-2,713266443754387;0,5359538440923796;-0,7620594009407331;0,8545182653279214;2,9602954191717274;2,7771843623157446
18:45:16.766;0;Wrist;1;3812;11;-0,6878872035889767;-1,3123692234183781;6,747276223029267;-1,3123692234183781;-0,6878872035889767;6,747276223029267;18,402661214026306;-36,37806329538866;-10,376293221839045
18:45:16.766;0;Wrist;1;3813;9;-1,076693014313181;-1,1592395025864437;7,291604358043153;-1,1592395025864437;-1,076693014313181;7,291604358043153;17,94488357188635;-27,28354747154149;-10,193182164983062
18:45:16.767;0;Wrist;1;3814;10;-1,2728904318750571;-0,8039307959418012;7,919675283059175;-0,8039307959418012;-1,2728904318750571;7,919675283059175;15,533921323282572;-15,472884304330577;-8,178960539567248
18:45:16.777;0;Mov;1;3808;10;-0,7309549599253823;-4,068703363902707;1,303994872890408;-4,068703363902707;-0,7309549599253823;1,303994872890408;-16,541032135990477;-4,1810357982116155;-2,9297769096957307
18:45:16.778;0;Mov;1;3809;10;2,6821618835261085;-1,494210662594989;-0,820679377784814;-1,494210662594989;2,6821618835261085;-0,820679377784814;-15,2287362285226;-2,4414807580797753;5,676442762535478
18:45:16.778;0;Mov;1;3810;10;0;-1,7538132639164403;0,9391155735953856;-1,7538132639164403;-0,19380473959604938;0,9391155735953856;-9,979552598651082;3,021332438123722;-2,075258644367809
18:45:16.790;0;Mov2;1;3818;9;0,7189917042107914;0,7261696337969603;0;0,7261696337969603;0,7189917042107914;0,36009400296983246;-6,836146122623371;16,113773003326518;-9,67436750389111
18:45:16.791;0;Mov2;1;3819;10;0,5132236939985351;0,8290536090998566;0;0,8290536090998566;0,5132236939985351;0,27276224817461164;-5,829035309915464;16,05273598437452;-9,918515579699088
18:45:16.791;0;Mov2;1;3820;10;0;0;0;0,12441786092190694;0,0693868861249504;0,19500107112815485;-4,211554307687613;14,1300698873867;-11,749626148258919
18:45:16.791;0;Mov2;1;3821;9;0;0;0;0,3313821952154607;0,16987822816686757;0,22371287888252664;-2,838221381267739;12,573625904110843;-10,559404278695029
18:45:16.791;0;Mov2;1;3822;10;0,6926725297173986;0;0;0,3935911070493942;0,6926725297173986;0,22849819010933256;-1,8311105685598315;8,941923276467177;-11,108737449262978
18:45:16.795;0;Wrist;1;3815;10;-1,0085025044251839;-0,994146585646382;8,312069879757072;-0,994146585646382;-1,0085025044251839;8,312069879757072;17,792291024506362;1,1291848506118962;-6,8666646320993685
18:45:16.796;0;Wrist;1;3816;10;0;-1,323136058191168;8,472377887813959;-1,323136058191168;-0,48331555471205784;8,472377887813959;16,907254249702444;15,015106662190618;-6,683553575243385
18:45:16.797;0;Wrist;1;3817;10;0;-1,9775262173070467;8,481948301644948;-1,9775262173070467;-0,30745568378627885;8,481948301644948;16,663106173894466;28,2601397747734;-7,263405255287331
18:45:16.813;0;Mov;1;3811;10;0,579021600428785;-3,3305705339976197;-0,6866909018601032;-3,3305705339976197;0,579021600428785;-0,6866909018601032;-4,058961760307627;4,791405987731559;-3,6011841181676685
18:45:16.813;0;Mov;1;3812;10;0;-2,00264914967803;0;-2,00264914967803;0,0466566987770661;-0,28472550388920254;-10,773033845027008;8,239997558519242;-3,5401470992156745
18:45:16.813;0;Mov;1;3813;9;0;-2,966887417218543;-0,6591754256378368;-2,966887417218543;0,11604358490201651;-0,6591754256378368;-3,6011841181676685;12,115848261970886;-3,6317026276436657
18:45:16.825;0;Wrist;1;3818;10;0;-2,180901564455092;8,807349047822504;-2,180901564455092;-0,10288399765532014;8,807349047822504;18,15851313821833;40,98635822626423;-3,9979247413556322
18:45:16.826;0;Wrist;1;3819;10;0;-1,8004699850459303;9,150694677571947;-1,8004699850459303;-0,13638112408730582;9,150694677571947;15,564439832758568;48,615985595263524;-5,554368724631489
18:45:16.838;0;Wrist;1;3820;10;0;-1,0001281538972138;9,431831186864834;-1,0001281538972138;-0,31582994490455335;9,431831186864834;11,780144657734915;58,290353099154636;-6,0121463667714465
18:45:16.839;0;Mov;1;3814;10;0;-2,780260771126438;0;-2,780260771126438;0,29309976500747703;-0,48331555471205784;-8,880886257515183;14,831995605334635;-4,486220892971588
18:45:16.841;0;Mov;1;3815;10;0;-2,881948444700461;-0,8170903533852657;-2,881948444700461;0,23208716980403302;-0,8170903533852657;-11,261329996642964;15,259254737998596;-4,852443006683553
18:45:16.841;0;Mov;1;3816;9;0;-2,6115787701803646;0;-2,6115787701803646;0,2739585499034852;-0,46297800807596057;-14,923551133762627;13,794366283150731;-6,8666646320993685
18:45:16.851;0;Mov2;1;3823;9;1,055159225554674;0,6173040306367688;0;0,6173040306367688;1,055159225554674;0,12322153684060945;-0,8545182653279214;5,005035554063539;-11,780144657734915
18:45:16.862;0;Wrist;1;3821;10;0;-0,7560777730834376;9,612475966673788;-0,7560777730834376;-0,4462294560361797;9,612475966673788;10,315256202887051;73,85479293191321;-4,089480269783624
18:45:16.863;0;Wrist;1;3822;10;-0,527579612777337;-1,0336253175832393;9,37321085238197;-1,0336253175832393;-0,527579612777337;9,37321085238197;9,33866389965514;90,91463972899564;-1,7090365306558428
18:45:16.864;0;Wrist;1;3823;10;0;-1,7908994520020143;9,358854754783776;-1,7908994520020143;-0,3971801016457106;9,358854754783776;11,719107638782923;103,91552476577044;-0,9765923032319102
18:45:16.865;0;Mov;1;3817;10;0;-2,2287545873134555;0;-2,2287545873134555;0,1866267951082644;-0,36487929929502244;-15,472884304330577;13,58073671681875;-9,063997314371166
18:45:16.865;0;Mov;1;3818;10;0;-3,020722067934202;-0,9714163759460738;-3,020722067934202;0,4653706711401715;-0,9714163759460738;-13,36710715048677;13,275551622058778;-11,505478072450941
18:45:16.865;0;Mov;1;3819;10;0;-2,684554725409711;-0,6579790643024994;-2,684554725409711;0,0933133975541322;-0,6579790643024994;-25,940733054597615;11,444441053498947;-16,663106173894466
18:45:16.878;0;Mov2;1;3824;10;1,27049782841731;0,6711386813524277;0;0,6711386813524277;1,27049782841731;0,354112375112537;-0,6103701895199438;2,807702871791742;-11,963255714590899
18:45:16.878;0;Mov2;1;3825;10;1,2944243398464919;1,1640248287148656;0;1,1640248287148656;1,2944243398464919;0,32061527103297527;0;4,119998779259621;-10,467848750267036
18:45:16.879;0;Mov2;1;3826;10;1,8854091959898678;1,4379834084215828;0;1,4379834084215828;1,8854091959898678;0,35650503817674795;-2,7466658528397474;7,17184972685934;-12,298959318826869
18:45:16.879;0;Mov2;1;3827;10;1,3530441974776453;0,8505875170712912;0;0,8505875170712912;1,3530441974776453;0,4761375953226569;-4,150517288735618;11,169774468214973;-15,717032380138553
18:45:16.880;0;Mov2;1;3828;9;1,0814783404416028;0,5861995300149541;0;0,5861995300149541;1,0814783404416028;0,34454178246215705;-3,5706656086916717;14,77095858638264;-16,541032135990477
18:45:16.885;0;Wrist;1;3824;10;0;-2,7288187238685264;9,54907090212714;-2,7288187238685264;-0,17825251908837397;9,54907090212714;14,069032868434705;116,27552110354931;-2,5940733054597613
18:45:16.887;0;Wrist;1;3825;10;0;-3,426276579714347;9,840974723044527;-3,426276579714347;-0,4199102815427869;9,840974723044527;16,815698721274455;125,21744438001647;-4,303109836115604
18:45:16.888;0;Wrist;1;3826;10;-0,8649433762436293;-3,879683875927;10,073061311685537;-3,879683875927;-0,8649433762436293;10,073061311685537;19,165623950926236;132,08410901211585;-5,7374797814874725
18:45:16.898;0;Mov;1;3820;9;0;-2,607989745780816;0;-2,607989745780816;-0,20935697500534073;-0,2775475444998016;-24,23169652394177;11,505478072450941;-18,951994384594258
18:45:16.898;0;Mov;1;3821;10;0;-2,816150538270211;-0,5239905883777887;-2,816150538270211;-0,1076693014313181;-0,5239905883777887;-23,529770805993834;12,421033356730858;-20,264290292062135
18:45:16.899;0;Mov;1;3822;8;0;-2,7060883949552905;-0,5706473095072787;-2,7060883949552905;-0,35770133990562153;-0,5706473095072787;-24,750511185033723;12,26844080935087;-21,027253028962065
18:45:16.899;0;Mov;1;3823;10;0;-2,6378978850672934;-0,5108310309343241;-2,6378978850672934;-0,2990813928647725;-0,5108310309343241;-24,719992675557727;11,53599658192694;-21,881771294289987
18:45:16.894;0;Mov2;1;3829;10;1,0701132355914487;0,9905575612468337;0;0,9905575612468337;1,0701132355914487;0,3768425699112293;-0,7477034821619313;17,014069032868434;-16,22058778649251
18:45:16.908;0;Mov2;1;3830;10;1,0587481307412947;1,3949155924787133;0;1,3949155924787133;1,0587481307412947;0,4091433573603015;2,075258644367809;19,257179479354228;-15,900143436994536
18:45:16.908;0;Mov2;1;3831;10;0,8370291228439946;0,8681335737937559;0;0,8681335737937559;0,8370291228439946;0,3856156231084882;0,46795047863195727;16,042563147882525;-11,342712688578956
18:45:16.908;0;Mov2;1;3832;10;0,6153101149466944;0;0;0,34135155510879844;0,6153101149466944;0,3620878888566749;-1,1393576871038946;12,82794681641082;-6,785281940163376
18:45:16.908;0;Mov2;1;3833;10;0;0;0;-0,18543046357615894;0,3935911070493942;0,3385601546048616;-2,7466658528397474;9,613330484939116;-2,2278511917477952
18:45:16.909;0;Mov2;1;3834;10;0;0;0,6053407749221777;0,4881008510372478;0,2524247015385144;0,6053407749221777;1,0071108127079074;8,331553086947233;4,394665364543596
18:45:16.910;0;Mov2;1;3835;9;0,7728263549264504;0,6316598898091067;0,6938688314462722;0,6316598898091067;0,7728263549264504;0,6938688314462722;2,0142216254158147;11,719107638782923;6,95822016052736
18:45:16.917;0;Wrist;1;3827;10;-0,8960478768654438;-4,123734435560167;10,253707045197913;-4,123734435560167;-0,8960478768654438;10,253707045197913;19,01303140354625;140,62929166539507;-5,523850215155492
18:45:16.918;0;Wrist;1;3828;10;0;-3,817474993896298;10,46186712240974;-3,817474993896298;-0,4546037171544542;10,46186712240974;10,254219183935056;153,78276924954986;-5,76799829096347
18:45:16.919;0;Wrist;1;3829;10;0;-3,4920744861445967;10,313523323770868;-3,4920744861445967;-0,14595171673768578;10,313523323770868;2,685628833887753;172,61268959624013;-6,2868129520554215
18:45:16.933;0;Mov;1;3824;10;0,5204016235847041;-2,1892757957701345;0;-2,1892757957701345;0,5204016235847041;-0,06819056204365291;-26,612140263069552;15,015106662190618;-24,384289071321756
18:45:16.933;0;Mov;1;3825;10;0;-2,007434356593524;0,5395428684919279;-2,007434356593524;-0,05383465071565905;0,5395428684919279;-26,21539963988159;23,80443739127781;-29,02310251167333
18:45:16.934;0;Mov;1;3826;9;0;-2,179705143513291;0;-2,179705143513291;0,117239908983314;0,30027772439687794;-17,639698477126377;38,17865535447249;-33,05154576250496
18:45:16.938;0;Mov2;1;3836;10;1,1054048518707846;0,891262550737022;1,1054048518707846;0,891262550737022;1,1054048518707846;1,1054048518707846;2,6245918149357585;18,127994628742332;5,706961272011475
18:45:16.938;0;Mov2;1;3837;10;0,9259560161519211;0,8709250041009247;1,6963897080141606;0,8709250041009247;0,9259560161519211;1,6963897080141606;5,249183629871517;31,128879665517136;1,586962492751854
18:45:16.939;0;Mov2;1;3838;10;0,8852809228797266;0,9032258064516129;1,8830164733191932;0,9032258064516129;0,8852809228797266;1,8830164733191932;11,07821893978698;49,53154087954344;-4,0284432508316295
18:45:16.945;0;Wrist;1;3830;10;0;-3,4250801587725457;9,391155735953856;-3,4250801587725457;-0,12082888867801446;9,391155735953856;-7,782219916379284;190,1608325449385;-5,188146610919523
18:45:16.946;0;Wrist;1;3831;10;0;-3,0302927201910457;7,977099196600238;-3,0302927201910457;-0,1818414838814585;7,977099196600238;-22,247993408001953;206,97653126621296;-3,9979247413556322
18:45:16.947;0;Wrist;1;3832;10;0;-2,140226590395825;5,955308980834376;-2,140226590395825;-0,22371287888252664;5,955308980834376;-34,45539719840083;223,12082277901547;2,166814172795801
18:45:16.959;0;Mov;1;3827;10;0;0;2,0947661709952086;-0,0945097216354297;0,13039949623001038;2,0947661709952086;-18,921475875118258;58,38190862758263;-47,94457838679159
18:45:16.959;0;Mov;1;3828;10;0;-3,3975646229438152;3,2910917424542987;-3,3975646229438152;0,4306772057252724;3,2910917424542987;11,658070619830928;90,2737510299997;-77,54753257850886
18:45:16.960;0;Mov;1;3829;10;1,0300362931836908;0,5479170998069705;2,7599230456709494;0,5479170998069705;1,0300362931836908;2,7599230456709494;39,0942106387524;130,86336863307596;-87,61864070558794
18:45:16.968;0;Mov2;1;3839;10;0;0,5574877520638142;2,429737331003754;0,5574877520638142;0,4055543627639851;2,429737331003754;15,686513870662557;75,93005157628102;-5,4322946867275
18:45:16.968;0;Mov2;1;3840;9;0,7381328895115512;0,708224750225074;2,775475325785089;0,708224750225074;0,7381328895115512;2,775475325785089;14,313180944242683;109,34781945249794;-1,5564439832758568
18:45:16.969;0;Mov2;1;3841;10;0,9666311094241157;0,8374279000213629;3,4669515537736135;0,8374279000213629;0,9666311094241157;3,4669515537736135;-0,061037018951994385;152,53151036103398;4,394665364543596
18:45:16.984;0;Mov;1;3830;9;-1,1975218731879635;3,0087588122196114;12,276693205053865;3,0087588122196114;-1,1975218731879635;12,276693205053865;82,6136051515244;188,63490707113866;-111,17893002105777
18:45:16.984;0;Mov;1;3831;10;-1,5312967314676351;-5,755522419660024;0,7907712384983367;-5,755522419660024;-1,5312967314676351;0,7907712384983367;192,3886837366863;265,1753288369396;-98,30011902218696
18:45:16.984;0;Mov;1;3832;10;4,5077550393688774;2,3579577967162084;10,709506706442458;2,3579577967162084;4,5077550393688774;10,709506706442458;199,56053346354565;335,7951597643971;-119,99877925962096
18:45:16.998;0;Mov2;1;3842;9;0,7943602032914212;1,2238411072878201;3,761247739722892;1,2238411072878201;0,7943602032914212;3,761247739722892;-7,9958494827112645;178,41120639667957;5,615405743583484
18:45:16.998;0;Mov2;1;3843;10;0;1,4451613380077517;5,879940183721427;1,4451613380077517;0,2990813928647725;5,879940183721427;-21,027253028962065;231,4828943754387;4,058961760307627
18:45:17.000;0;Mov2;1;3844;10;0;2,4668232806634722;7,467464407788324;2,4668232806634722;-0,2787438760319071;7,467464407788324;-12,665181432538835;292,73354289376505;4,1810357982116155
18:45:17.014;0;Mov;1;3833;10;2,3364238887447737;-2,501516865291299;5,538987395855586;-2,501516865291299;2,3364238887447737;5,538987395855586;234,32111575670643;417,5542466505936;-141,270180364391
18:45:17.015;0;Mov;1;3834;10;13,40123924222541;2,663020817438276;6,771202734458449;2,663020817438276;13,40123924222541;6,771202734458449;182,07342753379925;485,2137821588794;-177,61772515030367
18:45:17.015;0;Mov;1;3835;9;9,315787415692618;0;0,5120273326631978;0,2787438760319071;9,315787415692618;0,5120273326631978;79,28708761864071;502,9755546739097;-245,06363109225745
18:45:17.028;0;Mov2;1;3845;10;1,4260201527069918;4,156034939878536;10,758555673390912;4,156034939878536;1,4260201527069918;10,758555673390912;8,57570116275521;343,5468611713004;20,264290292062135
18:45:17.028;0;Mov2;1;3846;10;-5,497116000854518;0,9797906668675802;16,02478102969451;0,9797906668675802;-5,497116000854518;16,02478102969451;86,79464094973602;388,1954405346843;36,43910031434065
18:45:17.029;0;Mov2;1;3847;10;-8,492715613269448;-1,1688101548432874;29,571972182378612;-1,1688101548432874;-8,492715613269448;29,571972182378612;265,5720694601276;376,2627033295694;87,09982604449598
18:45:17.043;0;Mov;1;3836;10;12,983721236304818;0;6,771202734458449;-0,3744499217486343;12,983721236304818;6,771202734458449;-84,99404889065218;447,0046082949309;-296,12109744560075
18:45:17.043;0;Mov;1;3837;10;20,00854518265328;-9,205725272377697;1,5863276839121678;-9,205725272377697;20,00854518265328;1,5863276839121678;-264,38184759056367;266,0908841212195;-340,2813806573687
18:45:17.044;0;Mov;1;3838;10;18,56099124118778;-26,225850321970274;25,26759201330607;-26,225850321970274;18,56099124118778;25,26759201330607;-521,34769737846;-6,805627613147374;-211,58482619708855
18:45:17.058;0;Mov2;1;3848;10;-11,749114009521774;-16,1683400982696;33,33680990020447;-16,1683400982696;-11,749114009521774;33,33680990020447;502,39570299386577;228,03430280465102;168,09595019379253
18:45:17.058;0;Mov2;1;3849;9;-8,426917706839198;-3,7696219710379344;26,973553804132205;-3,7696219710379344;-8,426917706839198;26,973553804132205;614,1850032044435;108,58485671559801;238,53267006439407
18:45:17.059;0;Mov2;1;3850;10;-8,511856440931425;16,743772316660053;25,60734885708182;16,743772316660053;-8,511856440931425;25,60734885708182;505,23392437513354;78,1884212775048;188,57387005218666
18:45:17.073;0;Mov;1;3839;10;12,960991622669148;0;2,0433241237372965;-0,45221108389347514;12,960991622669148;2,0433241237372965;-455,09201330607016;30,274361400189214;-38,605914487136445
18:45:17.074;0;Mov;1;3840;10;10,464259964293344;11,883101710562457;11,240675641651661;11,883101710562457;10,464259964293344;11,240675641651661;-679,5251319925535;-57,92413098544267;154,39313943906978
18:45:17.074;0;Mov;1;3841;9;11,1736808374279;39,19999923703726;31,5746215704825;39,19999923703726;11,1736808374279;31,5746215704825;-828,7301248207037;-26,795251319925534;258,18659016693624
18:45:17.088;0;Mov2;1;3851;10;7,082247383037813;24,26746421704764;18,576544236579487;24,26746421704764;7,082247383037813;18,576544236579487;588,7936033204138;15,778069399090548;341,4410840174566
18:45:17.095;0;Wrist;1;3833;10;0;-1,5588122672963654;3,4645589503158667;-1,5588122672963654;-0,3265968988902707;3,4645589503158667;-50,69124423963134;237,18985564745017;7,202368236335337
18:45:17.097;0;Wrist;1;3834;10;0;-1,1389020155568101;1,1077974553285317;-1,1389020155568101;-0,44862208929715874;1,1077974553285317;-71,56590472121341;249,24466689046906;12,115848261970886
18:45:17.098;0;Wrist;1;3835;10;0;-0,996539248710593;-1,2716941301461837;-0,996539248710593;-0,3361674915406507;-1,2716941301461837;-98,81893368327891;252,72377697073276;19,806512649922176
18:45:17.099;0;Wrist;1;3836;10;0;-1,2214483846171453;-4,0986115031891845;-1,2214483846171453;0,08852809377813425;-4,0986115031891845;-124,88174077578051;263,55784783471177;32,593768120365
18:45:17.100;0;Wrist;1;3837;10;1,282461084131901;-1,0910489926984466;-3,057808256019776;-1,0910489926984466;1,282461084131901;-3,057808256019776;-130,252998443556;274,30036317026276;39,76561784722434
18:45:17.116;0;Mov;1;3842;10;0;37,78355128635518;21,14984015930662;37,78355128635518;0,15671865582178715;21,14984015930662;442,2437208166753;-234,47370830408641;26,337473677785578
18:45:17.117;0;Mov;1;3843;10;12,075710699789422;10,707113864558854;0,7058320871608631;10,707113864558854;12,075710699789422;0,7058320871608631;706,869716483047;-160,74098941007722;315,13412884914703
18:45:17.117;0;Mov;1;3844;10;19,722622989593187;37,11600085451826;-8,769066438795129;37,11600085451826;19,722622989593187;-8,769066438795129;313,2724997711112;-297,7080599383526;520,1879940183721
18:45:17.118;0;Mov2;1;3852;10;-4,300790429395429;39,19999923703726;4,045973273415326;39,19999923703726;-4,300790429395429;4,045973273415326;-0,4272591326639607;56,703390606402785;-39,582506790368356
18:45:17.118;0;Mov2;1;3853;10;-39,201197088534194;23,6525524918363;24,791455580309457;23,6525524918363;-39,201197088534194;24,791455580309457;-364,1773735770745;-90,67049165318765;-50,935392315439316
18:45:17.119;0;Mov2;1;3854;10;-4,213458853419599;35,8227752006592;30,42495307779168;35,8227752006592;-4,213458853419599;30,42495307779168;-545,1521347697378;-205,14542069765312;-4,058961760307627
18:45:17.120;0;Mov2;1;3855;10;-21,387909329508346;9,144713049714651;20,430848872341073;9,144713049714651;-21,387909329508346;20,430848872341073;-293,89324625385296;-289,4375438703574;-66,3167210913419
18:45:17.121;0;Mov2;1;3856;9;-8,702072588274788;10,143644901882992;13,146422086245307;10,143644901882992;-8,702072588274788;13,146422086245307;-284,5851008636738;-287,3012482070376;-32,593768120365
18:45:17.128;0;Wrist;1;3838;9;3,340140947828608;0;-5,21358712652974;0,45938904328287605;3,340140947828608;-5,21358712652974;-51,54576250495926;302,46894741660816;42,451246681112096
18:45:17.130;0;Wrist;1;3848;10;-3,2516129509109777;2,4249518856624044;-12,515958319345684;2,4249518856624044;-3,2516129509109777;-12,515958319345684;25,147251808221686;-133,51847895748773;-23,438215277565845
18:45:17.131;0;Wrist;1;3849;10;-2,9477463511307107;4,492202520828883;-11,40337553788873;4,492202520828883;-2,9477463511307107;-11,40337553788873;-20,599993896298106;-57,89361247596668;-21,97332682271798
18:45:17.131;0;Wrist;1;3850;10;-2,4871610061189613;6,181414418469802;-10,59346293527024;6,181414418469802;-2,4871610061189613;-10,59346293527024;-47,8225043488876;-30,51850947599719;-9,918515579699088
18:45:17.132;0;Wrist;1;3851;10;-1,5935057327112643;6,993719386120182;-8,876735740226447;6,993719386120182;-1,5935057327112643;-8,876735740226447;-65,98101748710593;-18,37214270455031;-1,4648884548478653
18:45:17.146;0;Mov;1;3845;10;4,311557264168218;5,5688955351420635;14,358299699392681;5,5688955351420635;4,311557264168218;14,358299699392681;-56,550798059022796;-359,9353007599109;220,4046754356517
18:45:17.147;0;Mov;1;3846;10;-5,474385910367138;8,359922902615436;7,688784638508255;8,359922902615436;-5,474385910367138;7,688784638508255;111,75878170110173;-410,8096560563982;261,63518173772394
18:45:17.147;0;Mov;1;3847;10;0;-1,1783806878872036;-2,848451281014435;-1,1783806878872036;-0,02990813928647725;-2,848451281014435;84,56678975798822;-427,4727622302927;259,6209601123081
18:45:17.148;0;Mov2;1;3857;10;-2,1629566808832057;0;10,037171544541765;-0,39598377011360514;-2,1629566808832057;10,037171544541765;-264,44288460951566;-333,47575304422134;-62,44087038789026
18:45:17.148;0;Mov2;1;3858;10;0;0;2,630720074694052;0,46417433960806603;-0,44383679297196876;2,630720074694052;-266,3655507065035;-320,4138309884945;-88,80886257515184
18:45:17.154;0;Mov2;1;3859;10;8,186455694753867;-4,647724845118565;-1,303994872890408;-4,647724845118565;8,186455694753867;-1,303994872890408;-247,59666737876523;-313,2724997711112;-84,53627124851222
18:45:17.155;0;Wrist;1;3852;9;0;7,1073703154087955;-8,22234546189764;7,1073703154087955;-0,3146336431756798;-8,22234546189764;-33,87554551835689;-13,611255226294748;19,684438612018187
18:45:17.156;0;Wrist;1;3853;10;0;7,442341475417341;-8,13142509994812;7,442341475417341;0,4199102815427869;-8,13142509994812;9,216589861751151;-28,870509964293344;19,959105197302165
18:45:17.157;0;Wrist;1;3854;10;0;6,385986186559649;-8,673360393078402;6,385986186559649;-0,02273018548518231;-8,673360393078402;20,172734763634143;-53,071687978759115;4,486220892971588
18:45:17.163;0;Mov;1;3848;9;0;-2,7096774193548385;-3,9718008972441785;-2,7096774193548385;0,3852168459311197;-3,9718008972441785;18,341624195074314;-425,0007629627369;241,00466933194983
18:45:17.163;0;Mov;1;3849;10;-4,340269459364604;-6,4685325556199835;1,0264473879970701;-6,4685325556199835;-4,340269459364604;1,0264473879970701;-61,250648518326365;-404,1566209906308;159,15402691732535
18:45:17.176;0;Mov;1;3850;10;-6,968596453749199;-11,805340548417615;1,135312991157262;-11,805340548417615;-6,968596453749199;1,135312991157262;52,94961394085513;-388,0428479873043;133,8541825617237
18:45:17.178;0;Mov2;1;3860;9;12,283870777001251;-4,633369224372082;-4,304379692220832;-4,633369224372082;12,283870777001251;-4,304379692220832;-261,9708853419599;-282,11310159611804;-46,998504593035676
18:45:17.178;0;Mov2;1;3861;10;10,598248619037447;-4,7302712141789;-4,703952337717826;-4,7302712141789;10,598248619037447;-4,703952337717826;-250,43488876003295;-253,88348033082065;-14,374217963194678
18:45:17.179;0;Mov2;1;3862;10;8,966460158085878;-7,7737238494521925;-7,614612262337108;-7,7737238494521925;8,966460158085878;-7,614612262337108;-226,93563646351512;-248,72585222937713;7,629627368999298
18:45:17.180;0;Mov2;1;3863;9;7,487802133243813;-8,961675428022096;-6,296261768700217;-8,961675428022096;7,487802133243813;-6,296261768700217;-238,86837366863003;-255,3178502761925;4,547257911923582
18:45:17.187;0;Wrist;1;3855;10;0;4,937235824152348;-8,712838946195868;4,937235824152348;-0,35291604358043155;-8,712838946195868;24,597918637653738;-82,79671620838039;7,507553331095309
18:45:17.188;0;Wrist;1;3856;8;0;4,766160981322672;-8,863576540421766;4,766160981322672;-0,34932707878734703;-8,863576540421766;29,450361644337292;-89,48026978362377;14,587847529526657
18:45:17.189;0;Wrist;1;3857;10;0;5,113095397045808;-9,255971137119664;5,113095397045808;0,028711815205179753;-9,255971137119664;25,910214545121615;-83,7733085116123;21,607104709006013
18:45:17.193;0;Mov;1;3851;10;-3,29826955282754;-9,851741080965606;-7,599060220648823;-9,851741080965606;-3,29826955282754;-7,599060220648823;129,2764061403241;-356,82241279335915;148,9913632618183
18:45:17.193;0;Mov;1;3852;9;0;-9,523948446607868;-9,915146145512253;-9,523948446607868;0,2153386028626362;-9,915146145512253;70,16205328531754;-322,30597857600634;120,15137180700094
18:45:17.194;0;Mov;1;3853;10;-1,0874599682988983;-10,347020249031038;-9,407904675435653;-10,347020249031038;-1,0874599682988983;-9,407904675435653;14,89303262428663;-284,5240638447218;94,11908322397534
18:45:17.213;0;Mov2;1;3864;9;6,807092501602222;-5,672976050599689;-4,902542477950377;-5,672976050599689;6,807092501602222;-4,902542477950377;-229,10245063631092;-259,40733054597615;-9,369182409131138
18:45:17.213;0;Mov2;1;3865;10;3,5076265278328806;-9,19615485854671;-8,138602671895505;-9,19615485854671;3,5076265278328806;-8,138602671895505;-200,32349620044556;-259,6209601123081;-33,600878933072906
18:45:17.214;0;Mov2;1;3866;9;8,414954451124608;-5,958897766808069;-12,801880512405774;-5,958897766808069;8,414954451124608;-12,801880512405774;-166,60054322946868;-241,1877803888058;-24,719992675557727
18:45:17.231;0;Wrist;1;3858;10;0;5,722025494399854;-9,025080492568742;5,722025494399854;0,14475540010719626;-9,025080492568742;6,775109103671377;-68,88027588732567;16,235847041230507
18:45:17.233;0;Wrist;1;3859;9;0;6,394360179448836;-8,599188016907254;6,394360179448836;0,10049134949272515;-8,599188016907254;-17,120883816034425;-55,940427869502855;12,787255470442824
18:45:17.234;0;Wrist;1;3860;10;0;6,655159440137943;-8,383849414044619;6,655159440137943;-0,2584063293958098;-8,383849414044619;-35,645619067964724;-55,940427869502855;2,533036286507767
18:45:17.234;0;Mov;1;3854;10;-3,3879939706869715;-12,562615398113957;-5,975646229438154;-12,562615398113957;-3,3879939706869715;-5,975646229438154;-2,9908139286477247;-255,07370220038453;82,33893856624043
18:45:17.234;0;Mov;1;3855;10;-5,369109450819422;-12,419056329538865;-6,697030835139012;-12,419056329538865;-5,369109450819422;-6,697030835139012;83,28501235999634;-217,65800958281199;93,26456495864743
18:45:17.235;0;Mov;1;3856;9;-4,147660946989349;-12,328135013885921;-10,440333452864163;-12,328135013885921;-4,147660946989349;-10,440333452864163;132,51136814477982;-182,5922421948912;108,40174565874203
18:45:17.247;0;Mov2;1;3867;10;7,120529992065188;-8,809741889706107;-13,676394123661;-8,809741889706107;7,120529992065188;-13,676394123661;-154,78988006225777;-200,20142216254158;-54,597613452558974
18:45:17.247;0;Mov2;1;3868;10;7,734244819483016;-10,841102519302957;-13,068660924100467;-10,841102519302957;7,734244819483016;-13,068660924100467;-140,78188421277505;-171,02572710348826;-64,97390667439802
18:45:17.247;0;Mov2;1;3869;10;9,459346484267709;-10,414014099551379;-13,359367847224341;-10,414014099551379;9,459346484267709;-13,359367847224341;-116,45863216040529;-145,29862361522262;-68,94131290627766
18:45:17.248;0;Wrist;1;3861;10;0;6,837000640888699;-7,7773126354258855;6,837000640888699;-0,3612903345019379;-7,7773126354258855;-51,21005890072329;-62,65449995422224;-4,7303689687795645
18:45:17.248;0;Wrist;1;3862;10;0;6,978167344431898;-7,920871704000977;6,978167344431898;-0,3218115727618488;-7,920871704000977;-46,54072695089572;-60,9149449140904;-0,5188146610919523
18:45:17.249;0;Wrist;1;3863;10;0;7,8562702185125275;-7,918479338969084;7,8562702185125275;0,23089083827192755;-7,918479338969084;-44,12976470229194;-55,97094637897885;-1,6785180211798456
18:45:17.268;0;Mov2;1;3870;9;8,668575663014618;-9,119589640491958;-14,814100314340648;-9,119589640491958;8,668575663014618;-14,814100314340648;-97,38456373790704;-117,16055787835322;-77,85271767326884
18:45:17.268;0;Mov2;1;3871;10;9,034650906399731;-8,648237937559129;-16,03435239722892;-8,648237937559129;9,034650906399731;-16,03435239722892;-76,78456984160894;-83,55967894528031;-81,88116092410047
18:45:17.270;0;Mov2;1;3872;10;8,564495147556993;-7,965135940885647;-18,377954573198647;-7,965135940885647;8,564495147556993;-18,377954573198647;-55,66576128421888;-43,58043153172399;-78,1884212775048
18:45:17.275;0;Wrist;1;3864;9;0;7,966332361827448;-7,701944315164647;7,966332361827448;0,22251656225203711;-7,701944315164647;-30,701620532853177;-56,245612964262826;-7,9958494827112645
18:45:17.276;0;Wrist;1;3865;10;0;7,914890076143681;-7,678017803735465;7,914890076143681;0,1543260076591922;-7,678017803735465;-11,871700186162908;-59,7552415540025;-15,564439832758568
18:45:17.287;0;Wrist;1;3866;10;0;7,646913243507187;-7,934031380657369;7,646913243507187;-0,2823328408249916;-7,934031380657369;8,758812219611194;-65,40116580706199;-12,237922299874874
18:45:17.287;0;Mov;1;3857;10;-1,4643025233085116;-12,963384464552751;-10,506131359294413;-12,963384464552751;-1,4643025233085116;-10,506131359294413;90,51789910580767;-158,54365672780543;118,83907589953307
18:45:17.288;0;Mov;1;3858;10;-1,3949155924787133;-11,38303781243324;-9,019098864711447;-11,38303781243324;-1,3949155924787133;-9,019098864711447;53,19376201666311;-140,41566209906307;104,3427838984344
18:45:17.288;0;Mov;1;3859;10;-2,9740654660176395;-11,241871585741752;-9,803888058107242;-11,241871585741752;-2,9740654660176395;-9,803888058107242;53,834650715659045;-121,00589007232887;84,32264168218025
18:45:17.288;0;Mov;1;3860;9;-3,1929930932798243;-12,31617175817133;-11,863960882900479;-12,31617175817133;-3,1929930932798243;-11,863960882900479;61,43375957518235;-94,97360148930326;77,82219916379285
18:45:17.289;0;Mov;1;3861;10;-2,8065798860133673;-12,750437749870297;-13,561547250282295;-12,750437749870297;-2,8065798860133673;-13,561547250282295;57,34427930539872;-57,008575701162755;79,3786431470687
18:45:17.289;0;Mov;1;3862;10;-1,5097629427091281;-14,060414250617999;-13,877376628925443;-14,060414250617999;-1,5097629427091281;-13,877376628925443;46,20502334665975;-20,508438367870113;85,45182653279214
18:45:17.306;0;Mov2;1;3873;10;9,133945738090151;-7,29878240684225;-18,377954573198647;-7,29878240684225;9,133945738090151;-18,377954573198647;-31,891842402417065;-2,8992584002197335;-63,23435163426618
18:45:17.307;0;Mov2;1;3874;9;6,524759571367534;-5,877547818689536;-15,037812433240761;-5,877547818689536;6,524759571367534;-15,037812433240761;-16,571550645466477;27,436140018921474;-56,12353892635883
18:45:17.307;0;Mov2;1;3875;10;3,923947874385815;-3,2085451349681082;-12,53509914700766;-3,2085451349681082;3,923947874385815;-12,53509914700766;10,589922788171025;37,141026032288586;-84,35316019165624
18:45:17.308;0;Wrist;1;3867;10;-0,5634693799211097;7,820380451368755;-7,987866031373028;7,820380451368755;-0,5634693799211097;-7,987866031373028;21,454512161626027;-59,419537949766536;-4,272591326639607
18:45:17.309;0;Wrist;1;3868;10;-0,7165990411465804;7,577526551103244;-7,941209429456466;7,577526551103244;-0,7165990411465804;-7,941209429456466;30,732139042329173;-44,03820917386395;-1,8616290780358287
18:45:17.310;0;Wrist;1;3869;9;-0,9044221677869503;7,487802133243813;-7,363383892330699;7,487802133243813;-0,9044221677869503;-7,363383892330699;38,0260628070925;-33,082064271980954;-3,8758507034516434
18:45:17.309;0;Mov;1;3863;10;0;-12,499807828760643;-13,406622421185949;-12,499807828760643;0,3403546370014039;-13,406622421185949;-58,51924192022461;49,8672444837794;109,89715262306589
18:45:17.328;0;Mov;1;3864;10;2,1904722167119357;-10,939201406903287;-12,935868213446454;-10,939201406903287;2,1904722167119357;-12,935868213446454;-163,24350718710897;120,24292733542893;134,34247871333963
18:45:17.329;0;Mov;1;3865;10;-9,182995658742026;-35,678018280587175;-9,851741080965606;-35,678018280587175;-9,182995658742026;-9,851741080965606;245,21622363963743;49,07376323740348;11,20029297769097
18:45:17.330;0;Mov;1;3866;9;-20,405726416821803;-5,23512079607532;-39,201197088534194;-5,23512079607532;-20,405726416821803;-39,201197088534194;276,9859920041505;826,258125553148;-440,44312875759147
18:45:17.340;0;Wrist;1;3870;11;-0,9199743882946257;7,637342829676198;-6,463747348704489;7,637342829676198;-0,9199743882946257;-6,463747348704489;42,63435773796808;-16,449476607562488;-7,293923764763329
18:45:17.341;0;Wrist;1;3871;9;-1,3027985711615344;8,08835776085696;-6,360863254188666;8,08835776085696;-1,3027985711615344;-6,360863254188666;47,21213415936766;1,9837031159398175;-12,665181432538835
18:45:17.343;0;Wrist;1;3872;10;-0,9845759929960021;7,350224692526017;-4,41204899365215;7,350224692526017;-0,9845759929960021;-4,41204899365215;43,519394512771996;-0,15259254737998595;-26,825769829401533
18:45:17.361;0;Mov2;1;3876;10;39,02772988067263;-27,206837290566728;-39,201197088534194;-27,206837290566728;39,02772988067263;-39,201197088534194;-127,20114749595629;127,93359172338023;-118,38129825739311
18:45:17.362;0;Mov2;1;3877;10;35,997436445204016;-34,656357768486586;23,920529801324502;-34,656357768486586;35,997436445204016;23,920529801324502;967,711416974395;563,6768700216682;426,0078737754448
18:45:17.362;0;Mov2;1;3878;10;13,682375751518295;-35,21863078707236;17,227088229010896;-35,21863078707236;13,682375751518295;17,227088229010896;147,58751182592243;426,8318735312967;-77,66960661641285
18:45:17.362;0;Mov2;1;3879;9;-20,987140263069552;38,67959761345256;-18,850503173924984;38,67959761345256;-20,987140263069552;-18,850503173924984;-372,4478896450697;10,773033845027008;-236,8541520432142
18:45:17.362;0;Mov2;1;3880;9;-31,939500869777522;39,19999923703726;-39,201197088534194;39,19999923703726;-31,939500869777522;-39,201197088534194;403,6072878200629;294,6256904812769;168,6758018738365
18:45:17.369;0;Wrist;1;3873;10;-1,836359752189703;4,8271736808374275;-3,447810249259926;4,8271736808374275;-1,836359752189703;-3,447810249259926;57,6494644001587;-17,883846552934354;-12,634662923062837
18:45:17.370;0;Wrist;1;3874;10;-1,5528306394390698;3,976586342585528;-2,6821618835261085;3,976586342585528;-1,5528306394390698;-2,6821618835261085;50,53865169225135;-23,743400372325816;22,186956389049957
18:45:17.371;0;Wrist;1;3875;10;5,591625625629444;-21,893953901791438;17,858748893704032;-21,893953901791438;5,591625625629444;17,858748893704032;-126,1024811548204;-52,40028077028718;-19,806512649922176
18:45:17.373;0;Mov;1;3867;10;13,492159604174931;-39,201197088534194;27,241529206213567;-39,201197088534194;13,492159604174931;27,241529206213567;-986,0530411694693;-18,06695760979034;-994,4456312753686
18:45:17.373;0;Mov;1;3868;9;-21,038581118198188;-39,1126705221717;29,836359752189704;-39,1126705221717;-21,038581118198188;29,836359752189704;6,164738914151433;-369,609668263802;-597,064119388409
18:45:17.374;0;Mov;1;3869;9;-33,18607135227516;35,9543710135197;-37,35526596881008;35,9543710135197;-33,18607135227516;-37,35526596881008;-88,25952940458389;576,067384868923;-378,0938138981292
18:45:17.375;0;Mov;1;3870;10;-24,21243362224189;38,70352412488174;-8,596796128727073;38,70352412488174;-24,21243362224189;-8,596796128727073;-159,00143436994537;922,6966154972991;317,23990600299084
18:45:17.375;0;Mov;1;3871;10;13,732621616260262;-28,63285660878323;-11,564879490035707;-28,63285660878323;13,732621616260262;-11,564879490035707;-837,7636036255989;-1,2512588885158848;448,8967558824427
18:45:17.376;0;Mov;1;3872;10;14,325998718222602;-20,829224143192846;10,897330011902218;-20,829224143192846;14,325998718222602;10,897330011902218;-539,7503585924864;19,928586687826165;-294,96139408551284
18:45:17.392;0;Mov2;1;3881;10;30,228755302591022;-35,07507171849727;30,531426435132907;-35,07507171849727;30,228755302591022;30,531426435132907;-143,2538834803308;14,282662434766687;-189,0926847132786
18:45:17.393;0;Mov2;1;3882;10;-14,860756439405499;23,278103732413708;-14,928947187719352;23,278103732413708;-14,860756439405499;-14,928947187719352;73,09183019501327;159,03195287942137;74,61775566881313
18:45:17.394;0;Mov2;1;3883;10;14,895450262459182;-34,85973311563463;19,294339579454938;-34,85973311563463;14,895450262459182;19,294339579454938;-39,1247291482284;-66,56086916714987;-103,3051545762505
18:45:17.394;0;Mov2;1;3884;9;0;23,243409909360025;1,5025848939100315;23,243409909360025;0,08972441785943175;1,5025848939100315;72,26783043916136;-2,5025177770317697;46,60176396984771
18:45:17.397;0;Wrist;1;3876;11;0;-23,989917447431868;14,23507835627308;-23,989917447431868;0,10408032918742562;14,23507835627308;-46,60176396984771;-66,83553575243386;-103,2746360667745
18:45:17.419;0;Mov2;1;3885;10;0;-2,304123146000549;0,6902798666531876;-2,304123146000549;-0,28831446868228705;0,6902798666531876;15,961180455946531;19,440290536210213;-8,270516067995239
18:45:17.419;0;Mov2;1;3886;10;0,598162785729545;-1,8232001947462386;1,7920957537308877;-1,8232001947462386;0,598162785729545;1,7920957537308877;26,459547715689567;17,212439344462418;1,0681478316599018
18:45:17.420;0;Mov2;1;3887;10;1,2453748960463271;1,5851313821832942;0,8123050868633076;1,5851313821832942;1,2453748960463271;0,8123050868633076;34,18073061311686;21,118808557390057;20,386364329966124
18:45:17.425;0;Wrist;1;3877;9;0,9116000973731193;0;-3,7768000198370313;0,3421491193979461;0,9116000973731193;-3,7768000198370313;118,28974272896512;-43,79406109805597;23,621326334421827
18:45:17.426;0;Wrist;1;3878;10;0;-4,896560850093081;-1,768169242301706;-4,896560850093081;-0,06579790643024995;-1,768169242301706;70,52827539902951;-144,53566087832272;-8,789330729087192
18:45:17.427;0;Wrist;1;3879;9;-1,7394574047441023;-9,082503929258095;3,3951720194860684;-9,082503929258095;-1,7394574047441023;3,3951720194860684;21,240882595294046;-160,64943388164923;-1,4954069643238623
18:45:17.427;0;Wrist;1;3880;10;0,6017517505226295;-5,419354838709677;13,738603244117558;-5,419354838709677;0,6017517505226295;13,738603244117558;-41,169469283120215;-101,16885891293069;40,13183996093631
18:45:17.428;0;Wrist;1;3881;10;0;5,851228465376751;12,017090365306558;5,851228465376751;-0,14595171673768578;12,017090365306558;-30,21332438123722;13,000885036774804;42,48176519058809
18:45:17.442;0;Mov;1;3873;10;-0,9738090390102847;3,358085831400494;-12,26951563310648;3,358085831400494;-0,9738090390102847;-12,26951563310648;159,21506393627735;-510,727256080813;-32,80739768669698
18:45:17.443;0;Mov;1;3874;10;-29,006109424115728;6,571416650135808;29,441572313608205;6,571416650135808;-29,006109424115728;29,441572313608205;-69,36857203894162;-422,16254158146916;-112,58278145695364
18:45:17.443;0;Mov;1;3875;10;4,499380569627979;3,5028413209173865;-6,64080334253975;3,5028413209173865;4,499380569627979;-6,64080334253975;-225,80645161290323;308,4200567644276;75,93005157628102
18:45:17.443;0;Mov;1;3876;10;7,504550595873898;-15,568981368449965;-8,36351264229255;-15,568981368449965;7,504550595873898;-8,36351264229255;-9,430219428083133;111,60618915372173;46,23554185613575
18:45:17.443;0;Mov;1;3877;9;1,455928291993469;-2,0134159844508193;-6,0976716284676655;-2,0134159844508193;1,455928291993469;-6,0976716284676655;-18,921475875118258;-24,109622486037782;-106,84530167546617
18:45:17.444;0;Mov;1;3878;10;-6,852553159428694;0;4,465883644367809;-0,40794702582819603;-6,852553159428694;4,465883644367809;117,89300210577716;-163,88439588610493;-70,98605304116947
18:45:17.448;0;Mov2;1;3888;9;-2,566118350779748;1,001324574839015;0;1,001324574839015;-2,566118350779748;-0,34813074725524157;28,839991454817348;23,957029938657797;12,573625904110843
18:45:17.448;0;Mov2;1;3889;10;0,9726127372814112;-1,5157445705664236;0;-1,5157445705664236;0,9726127372814112;-0,2667806203173162;32,80739768669698;-0,7019257179479355;4,8829615161595505
18:45:17.452;0;Mov2;1;3890;9;2,3579577967162084;0,5515061242065188;1,1520615730002746;0,5515061242065188;2,3579577967162084;1,1520615730002746;32,776879177220984;-2,3194067201757864;10,22370067445906
18:45:17.455;0;Wrist;1;3882;9;-0,9498825275811029;7,977099196600238;7,125315198980682;7,977099196600238;-0,9498825275811029;7,125315198980682;28,351695303201392;17,303994872890406;3,662221137119663
18:45:17.456;0;Wrist;1;3883;10;0;5,0640464300973544;7,119333571123386;5,0640464300973544;-0,37684255500961333;7,119333571123386;32,319101535081025;-31,40354625080111;5,798516800439467
18:45:17.458;0;Wrist;1;3884;10;0,7046357854319895;-0,9020295047227394;10,124503120517593;-0,9020295047227394;0,7046357854319895;10,124503120517593;21,820734275337994;-66,86605426190985;5,981627857295449
18:45:17.463;0;Mov;1;3879;10;0,8194830164494766;-2,8616107192449722;2,42016667874691;-2,8616107192449722;0,8194830164494766;2,42016667874691;23,13303018280587;70,6198309274575;12,329477828302865
18:45:17.463;0;Mov;1;3880;10;3,282717511139256;-3,937107551042207;-5,83926520966216;-3,937107551042207;3,282717511139256;-5,83926520966216;-33,87554551835689;70,28412732322154;-30,97628711813715
18:45:17.476;0;Mov;1;3881;10;-4,797265541550951;-1,3446699661626027;0,8374279000213629;-1,3446699661626027;-4,797265541550951;0,8374279000213629;-18,951994384594258;-8,48414563432722;-75,19760734885708
18:45:17.479;0;Mov2;1;3891;10;0,7919675402272103;0;0;-0,4857081879730369;0,7919675402272103;0,4952788104266488;25,63554795983764;6,40888698995941;11,169774468214973
18:45:17.479;0;Mov2;1;3892;10;2,249092074343089;-0,8290536090998566;0;-0,8290536090998566;2,249092074343089;0,10288399765532014;25,055696279793693;3,448591570787683;16,235847041230507
18:45:17.479;0;Mov2;1;3893;9;1,9787225190359203;0;0;0,31582994490455335;1,9787225190359203;0,2823328408249916;17,517624439222388;1,586962492751854;13,519699697866756
18:45:17.480;0;Mov2;1;3894;9;1,3147618268761254;0;0;0,10168767357402264;1,3147618268761254;0,2524247015385144;15,015106662190618;1,3733329264198737;12,085329752494888
18:45:17.485;0;Wrist;1;3885;10;1,894979729033784;-5,533005767998291;11,926170003357036;-5,533005767998291;1,894979729033784;11,926170003357036;23,56028931546983;-58,32087160863063;0,24414807580797754
18:45:17.486;0;Wrist;1;3886;9;2,9070711386455885;-5,547361865596485;9,386371005890073;-5,547361865596485;2,9070711386455885;9,386371005890073;34,638508255256816;-36,22547074800867;-5,859553819391461
18:45:17.488;0;Wrist;1;3887;10;3,3341593199713127;-3,1475326738792075;7,868233474227119;-3,1475326738792075;3,3341593199713127;7,868233474227119;30,549027985473188;-44,46546830652791;-3,2349620044557024
18:45:17.493;0;Mov;1;3882;10;-2,792224026841029;-5,1154882389294105;2,00264914967803;-5,1154882389294105;-2,792224026841029;2,00264914967803;-41,169469283120215;41,99346903897214;-50,32502212591937
18:45:17.493;0;Mov;1;3883;10;-0,8697287023720511;-3,7253579725791193;-4,01726155507065;-3,7253579725791193;-0,8697287023720511;-4,01726155507065;40,28443250831629;11,932737205114902;-33,753471480452895
18:45:17.494;0;Mov;1;3884;9;-3,3150182538834803;-3,8079043416394542;0;-3,8079043416394542;-3,3150182538834803;-0,3349711600085452;-6,317331461531419;-11,688589129306925;-19,501327555162206
18:45:17.509;0;Mov2;1;3895;10;1,4284127561647388;0;0;0,2476394052133244;1,4284127561647388;0,43546250205046233;11,963255714590899;2,044740134891812;11,566515091402936
18:45:17.509;0;Mov2;1;3896;9;0,9893612595179602;0;0;-0,026319163317180778;0,9893612595179602;0,19500107112815485;9,33866389965514;1,6479995117038484;11,688589129306925
18:45:17.509;0;Mov2;1;3897;10;1,5013885921811578;0;0;0,42349924633587144;1,5013885921811578;0,1794488357188635;7,93481246375927;-0,7629627368999298;11,169774468214973
18:45:17.517;0;Wrist;1;3888;10;2,6666098418378246;-1,001324574839015;9,025080492568742;-1,001324574839015;2,6666098418378246;9,025080492568742;21,698660237434005;-61,52531510361034;5,615405743583484
18:45:17.518;0;Wrist;1;3889;10;1,6329844050416578;0,7967528663556321;9,42824240089114;0,7967528663556321;1,6329844050416578;9,42824240089114;16,357921079134496;-50,23346659749138;13,519699697866756
18:45:17.519;0;Wrist;1;3890;9;1,292031617175817;1,3733818037202064;8,090749649037141;1,3733818037202064;1,292031617175817;8,090749649037141;10,284737693411055;-14,923551133762627;18,15851313821833
18:45:17.520;0;Wrist;1;3891;10;1,5635975934247872;1,031232714125492;7,431574640644551;1,031232714125492;1,5635975934247872;7,431574640644551;-0,3051850947599719;0,4272591326639607;18,55525376140629
18:45:17.522;0;Mov;1;3885;11;-0,9391155735953856;-2,9417647232734154;0,8828882598155157;-2,9417647232734154;-0,9391155735953856;0,8828882598155157;-11,474959562974945;12,695699942014832;3,326517532883694
18:45:17.523;0;Mov;1;3886;9;-0,7823969475768303;-2,9597096068453017;-2,232343611713004;-2,9597096068453017;-0,7823969475768303;-2,232343611713004;22,553178502761924;-6,95822016052736;3,9063692129276406
18:45:17.524;0;Mov;1;3887;10;-1,2058962237159336;-2,8759668168431656;0;-2,8759668168431656;-1,2058962237159336;-0,3361674915406507;-10,711996826075014;-1,8616290780358287;1,9837031159398175
18:45:17.545;0;Mov2;1;3898;10;1,4619099198507646;0;0;-0,1531296761270867;1,4619099198507646;0,05503097852236053;4,119998779259621;-4,608294930875576;5,005035554063539
18:45:17.546;0;Mov2;1;3899;10;1,3458662678914761;0;0;-0,05742363041035951;1,3458662678914761;0,2787438760319071;4,4557023834955904;-6,19525742362743;0,4272591326639607
18:45:17.546;0;Mov2;1;3900;10;0,651997436445204;0;0;0,13039949623001038;0,651997436445204;0,415124985217597;5,401776177251503;-5,7374797814874725;-0,793481246375927
18:45:17.547;0;Wrist;1;3892;10;2,061269007309183;0,8338389352282785;7,774920270393994;0,8338389352282785;2,061269007309183;7,774920270393994;-9,67436750389111;-2,685628833887753;17,60917996765038
18:45:17.547;0;Wrist;1;3893;10;2,436915141376995;0,6196966340945158;7,8215768723105565;0,6196966340945158;2,436915141376995;7,8215768723105565;-8,758812219611194;0,18311105685598317;13,48918118839076
18:45:17.548;0;Wrist;1;3894;10;2,2909634693441574;0;7,271267109439375;0,44383679297196876;2,2909634693441574;7,271267109439375;-2,380443739127781;8,117923520615253;7,9958494827112645
18:45:17.560;0;Mov;1;3888;10;-1,7322794751579333;-3,1307839728232674;-0,661568029095584;-3,1307839728232674;-1,7322794751579333;-0,661568029095584;-6,988738670003357;-2,044740134891812;5,127109591967528
18:45:17.561;0;Mov;1;3889;10;-0,6890835649243141;-2,7970092337565235;-0,598162785729545;-2,7970092337565235;-0,6890835649243141;-0,598162785729545;9,430219428083133;-10,956144901882992;14,77095858638264
18:45:17.561;0;Mov;1;3890;10;0;-2,2682333788567766;-1,0132878305536057;-2,2682333788567766;-0,29549242807168796;-1,0132878305536057;5,462813196203498;-9,308145390179144;14,89303262428663
18:45:17.568;0;Mov2;1;3901;9;0,7776116214484085;0;0;0,37205725868442335;0,7776116214484085;0,46058534501174964;7,17184972685934;-5,76799829096347;0
18:45:17.568;0;Mov2;1;3902;10;1,0563555272835474;0;0;0,32300790429395426;1,0563555272835474;0,43665883358256785;7,38547929319132;-3,0823694570757163;-0,061037018951994385
18:45:17.569;0;Mov2;1;3903;10;0,9427045979949339;0;0;0,4773339268547624;0,9427045979949339;0,3218115727618488;8,178960539567248;-0,9765923032319102;-0,7019257179479355
18:45:17.576;0;Wrist;1;3895;8;2,0433241237372965;0;6,876479670857876;0,40316172950300605;2,0433241237372965;6,876479670857876;-1,0376293221839046;10,345774712363049;6,164738914151433
18:45:17.577;0;Wrist;1;3896;10;1,3219397564622943;0;6,456569299905393;0,3828241828669088;1,3219397564622943;6,456569299905393;-1,6479995117038484;11,84118167668691;4,791405987731559
18:45:17.578;0;Wrist;1;3897;10;0,7728263549264504;0;6,162273113956115;0,2009826989854503;0,7728263549264504;6,162273113956115;-5,554368724631489;16,449476607562488;5,371257667775506
18:45:17.592;0;Mov;1;3891;10;-0,9510788293099764;-2,3986327707754755;-0,6687460182882168;-2,3986327707754755;-0,9510788293099764;-0,6687460182882168;-3,326517532883694;-9,857478560747094;9,552293465987121
18:45:17.593;0;Mov;1;3892;10;-1,282461084131901;-2,696517981124302;0;-2,696517981124302;-1,282461084131901;-0,32061527103297527;-2,6245918149357585;-8,850367748039186;11,41392254402295
18:45:17.593;0;Mov;1;3893;10;-1,0635334568697166;-2,647468537324137;-0,7812005862414929;-2,647468537324137;-1,0635334568697166;-0,7812005862414929;7,293923764763329;-10,773033845027008;16,418958098086488
18:45:17.599;0;Mov2;1;3904;10;0,7488998434972686;0;0;0,4139286536854915;0,7488998434972686;0,25720999786370435;8,087405011139255;0,9460737937559129;-0,24414807580797754
18:45:17.600;0;Mov2;1;3905;9;0,9690237128818628;0,5586840537926878;0;0,5586840537926878;0,9690237128818628;0,23806879766132846;7,477034821619312;1,4954069643238623;1,1291848506118962
18:45:17.600;0;Mov2;1;3906;10;0,8493911557359538;0,5036531013481551;0;0,5036531013481551;0,8493911557359538;0,14714804826979125;5,706961272011475;0,8239997558519242;0,9155552842799157
18:45:17.605;0;Wrist;1;3898;10;0,6687460182882168;0;5,543772602771081;-0,004785302378971459;0,6687460182882168;5,543772602771081;-10,620441297647023;24,872585222937712;5,951109347819452
18:45:17.606;0;Wrist;1;3899;9;0,6196966340945158;0;4,8475114062929165;-0,040675070919770656;0,6196966340945158;4,8475114062929165;-12,970366527298808;31,434064760277106;5,706961272011475
18:45:17.635;0;Wrist;1;3900;10;0,6101260414441358;0;4,396496475112156;0,013159581658590389;0,6101260414441358;4,396496475112156;-14,221625415814692;34,94369335001679;5,340739158299509
18:45:17.636;0;Wrist;1;3901;10;0,5550950889996032;0;3,9562488555558946;0,19978636745334483;0,5550950889996032;3,9562488555558946;-12,421033356730858;37,75139622180853;4,303109836115604
18:45:17.638;0;Wrist;1;3902;10;0,515616357062746;0,522794286648915;3,657167224265267;0,522794286648915;0,515616357062746;3,657167224265267;-11,352885525070956;40,803247169408245;3,295999023407697
18:45:17.638;0;Wrist;1;3903;9;0;0,7034394240966522;3,4370434144871362;0,7034394240966522;0,4306772057252724;3,4370434144871362;-11,352885525070956;45,22843104342784;2,4414807580797753
18:45:17.643;0;Mov;1;3894;10;-0,8338389352282785;-2,8520403054139836;-0,7943602032914212;-2,8520403054139836;-0,8338389352282785;-0,7943602032914212;4,7303689687795645;-10,803552354503006;17,3955504013184
18:45:17.643;0;Mov;1;3895;10;-0,8960478768654438;-2,6103823492385634;-0,5586840537926878;-2,6103823492385634;-0,8960478768654438;-0,5586840537926878;2,533036286507767;-9,399700918607135;19,287697988830224
18:45:17.644;0;Mov;1;3896;10;-1,0408032471694082;-2,1569750530259104;-0,532364879299295;-2,1569750530259104;-1,0408032471694082;-0,532364879299295;2,533036286507767;-6,073183385723441;21,149327066866054
18:45:17.645;0;Mov;1;3897;10;-0,7393291912404248;-2,434522537919248;-0,588592193079165;-2,434522537919248;-0,7393291912404248;-0,588592193079165;0,030518509475997192;-4,303109836115604;20,203253273110143
18:45:17.645;0;Mov;1;3898;10;0;-2,456056445890683;0;-2,456056445890683;-0,417517618478576;-0,3265968988902707;0,5493331705679495;-4,303109836115604;21,759697256385998
18:45:17.659;0;Mov2;1;3907;10;0,827857307370983;0,5646656816499832;0;0,5646656816499832;0,827857307370983;0,04306772280776963;4,974517044587542;0,27466658528397475;0,45777764213995786
18:45:17.659;0;Mov2;1;3908;10;0,884084621150853;0,6388378790017396;0;0,6388378790017396;0,884084621150853;0,12561418500320445;2,838221381267739;0,09155552842799158;-0,4272591326639607
18:45:17.660;0;Mov2;1;3909;9;0,9809869685964537;0;0;0,3361674915406507;0,9809869685964537;0,0598162785729545;0;0;-1,8005920590838342
18:45:17.660;0;Mov2;1;3910;9;1,0001281538972138;0;0;0,05144199882766007;1,0001281538972138;0,058619954491657;-0,8545182653279214;0,061037018951994385;-2,410962248603778
18:45:17.664;0;Mov2;1;3911;10;1,1688101548432874;0,5144199957274087;0;0,5144199957274087;1,1688101548432874;0,0693868861249504;-1,6479995117038484;0,9460737937559129;-1,8616290780358287
18:45:17.667;0;Wrist;1;3904;10;0,5180089605204932;0,6340525528733176;2,8651997436445202;0,6340525528733176;0,5180089605204932;2,8651997436445202;-12,237922299874874;50,44709616382336;2,380443739127781
18:45:17.668;0;Wrist;1;3905;10;0,6555864012382885;0,6986541575746941;2,4082034230323193;0,6986541575746941;0,6555864012382885;2,4082034230323193;-14,526810510574663;55,20798364207892;2,1057771538438064
18:45:17.672;0;Wrist;1;3906;10;0,774022656655324;0,9630420850245675;2,0528947759941403;0,9630420850245675;0,774022656655324;2,0528947759941403;-17,303994872890406;62,59346293527024;2,2583697012237924
18:45:17.659;0;Mov;1;3899;10;-0,6549882652754677;-2,3543687723166604;0;-2,3543687723166604;-0,6549882652754677;-0,4133304879194388;0,07629627368999303;-4,135258033997619;19,806512649922176
18:45:17.673;0;Mov;1;3900;10;-0,8924589120723594;-2,2526810987426376;-0,5000640769486069;-2,2526810987426376;-0,8924589120723594;-0,5000640769486069;-0,3967406231879635;-3,967406231879635;17,853328043458358
18:45:17.674;0;Mov;1;3901;10;-0,8266610056421094;-2,355565193258461;-0,5861995300149541;-2,355565193258461;-0,8266610056421094;-0,5861995300149541;3,173924985503708;-6,530961027863399;19,318216498306224
18:45:17.675;0;Mov;1;3902;10;-0,7859859123699149;-2,4129886299478134;0;-2,4129886299478134;-0,7859859123699149;-0,43546250205046233;8,514664143803216;-9,216589861751151;20,99673451948607
18:45:17.692;0;Mov2;1;3912;10;0,9642384463599047;0,541935471949675;0;0,541935471949675;0,9642384463599047;0,07656483806354335;-4,119998779259621;3,051850947599719;-3,448591570787683
18:45:17.693;0;Mov2;1;3913;9;1,0264473879970701;0,6232856584940641;0;0,6232856584940641;1,0264473879970701;0,14714804826979125;-7,38547929319132;7,019257179479355;-4,852443006683553
18:45:17.696;0;Wrist;1;3907;10;0,7357402264473403;1,1712027583010345;1,728690450758385;1,1712027583010345;0,7357402264473403;1,728690450758385;-17,73125400555437;70,5893124179815;1,6479995117038484
18:45:17.696;0;Wrist;1;3908;9;0,7309549599253823;1,6246101737266152;1,2011108975875118;1,6246101737266152;0,7309549599253823;1,2011108975875118;-16,724143192846462;75,19760734885708;0,8850367748039186
18:45:17.697;0;Wrist;1;3909;10;0,532364879299295;2,0792138908810696;0,6866909018601032;2,0792138908810696;0,532364879299295;0,6866909018601032;-16,357921079134496;80,29419843134862;0,15259254737998595
18:45:17.711;0;Mov;1;3903;9;-0,8864772842150639;-2,2790002136295664;-0,5706473095072787;-2,2790002136295664;-0,8864772842150639;-0,5706473095072787;8,728293710135198;-7,690664387951292;21,17984557634205
18:45:17.711;0;Mov;1;3904;8;-0,7883785754341258;-2,340012913144322;-0,5670583447141941;-2,340012913144322;-0,7883785754341258;-0,5670583447141941;7,507553331095309;-6,2868129520554215;21,149327066866054
18:45:17.711;0;Mov;1;3905;10;-0,8458021909428693;-2,2730185857722707;-0,9522751906453139;-2,2730185857722707;-0,8458021909428693;-0,9522751906453139;4,699850459303567;-4,058961760307627;21,21036408581805
18:45:17.712;0;Mov;1;3906;10;-0,5132236939985351;-1,936851124034852;-1,0120914096118045;-1,936851124034852;-0,5132236939985351;-1,0120914096118045;4,272591326639607;-2,4414807580797753;21,240882595294046
18:45:17.718;0;Mov2;1;3914;10;1,137705594615009;0,6890835649243141;0;0,6890835649243141;1,137705594615009;0,22610554194673757;-10,925626392406995;11,291848506118962;-6,164738914151433
18:45:17.718;0;Mov2;1;3915;10;1,1819697122867519;0;0;0,44503312450407423;1,1819697122867519;0,2129459547000412;-12,909329508346813;12,695699942014832;-6,500442518387402
18:45:17.719;0;Mov2;1;3916;9;0,717795342875454;0;0;0,2560136663315989;0,717795342875454;0,11365092928861355;-12,329477828302865;11,444441053498947;-5,951109347819452
18:45:17.719;0;Mov2;1;3917;10;0,6424268437948241;0,5574877520638142;0;0,5574877520638142;0,6424268437948241;0,05742363041035951;-10,254219183935056;9,552293465987121;-4,333628345591602
18:45:17.720;0;Mov2;1;3918;10;0;0,6196966340945158;0;0,6196966340945158;0,23208716980403302;0,1531296761270867;-6,469924008911405;7,17184972685934;-4,24207281716361
18:45:17.725;0;Wrist;1;3910;10;0;2,1904722167119357;0;2,1904722167119357;0,43665883358256785;0,014355907602589877;-16,51051362651448;86,36738181707206;-1,2512588885158848
18:45:17.727;0;Wrist;1;3911;10;0;2,1713309121982483;-0,5431318332850124;2,1713309121982483;0,35650503817674795;-0,5431318332850124;-16,05273598437452;92,56263924069948;-2,197332682271798
18:45:17.727;0;Wrist;1;3912;10;0;2,206024496826075;-1,0910489926984466;2,206024496826075;0,2440504255186239;-1,0910489926984466;-14,954069643238624;97,35404522843105;-3,0823694570757163
18:45:17.742;0;Mov;1;3907;9;0;-1,4296090578936125;-1,4008972203360088;-1,4296090578936125;0,2440504255186239;-1,4008972203360088;5,523850215155492;3,4180730613116856;22,247993408001953
18:45:17.742;0;Mov;1;3908;10;0,6735312848101749;-1,2525529448454238;-0,7967528663556321;-1,2525529448454238;0,6735312848101749;-0,7967528663556321;-11,902218695638904;12,329477828302865;15,991698965422529
18:45:17.742;0;Mov;1;3909;10;-0,5204016235847041;-2,051698355052339;0;-2,051698355052339;-0,5204016235847041;-0,3385601546048616;-38,666951506088445;26,154362620929593;-2,3499252296517836
18:45:17.750;0;Mov2;1;3919;9;0;0;0;0,0466566987770661;0,09809870133013016;-0,019141209515885837;-1,5564439832758568;4,058961760307627;-2,6245918149357585
18:45:17.750;0;Mov2;1;3920;10;0;0;0;0,1914120914334544;0,3744499217486343;0,03947874311306917;3,448591570787683;1,2512588885158848;-0,061037018951994385
18:45:17.751;0;Mov2;1;3921;10;0,8446058892139958;0;0;0,4665669728690451;0,8446058892139958;0,20935697500534073;5,066072573015534;-0,21362956633198035;0,8850367748039186
18:45:17.751;0;Mov2;1;3922;10;0,830249970435194;0;0;0,4091433573603015;0,830249970435194;0,22371287888252664;4,089480269783624;0,09155552842799158;0,793481246375927
18:45:17.755;0;Wrist;1;3913;9;0;2,237128818628498;-1,2549455483031708;2,237128818628498;0,16150395214697713;-1,2549455483031708;-15,778069399090548;98,39167455061495;-3,2654805139316996
18:45:17.756;0;Wrist;1;3914;9;0;2,304123146000549;-1,489425336466567;2,304123146000549;0,0717795342875454;-1,489425336466567;-16,418958098086488;98,14752647480697;-3,2349620044557024
18:45:17.757;0;Wrist;1;3915;10;0;2,371117234946745;-1,7478316360591448;2,371117234946745;0,14954069643238624;-1,7478316360591448;-21,149327066866054;95,37034211249123;-2,380443739127781
18:45:17.765;0;Mov;1;3910;9;-1,416449500450148;-2,3471907235175635;0;-2,3471907235175635;-1,416449500450148;-0,33257852674756616;-35,27939695425275;28,015991698965422;-7,324442274239326
18:45:17.765;0;Mov;1;3911;10;-1,5683828003402813;-2,7682975154118474;-0,6101260414441358;-2,7682975154118474;-1,5683828003402813;-0,6101260414441358;-1,8921475875118259;8,789330729087192;-5,279702139347514
18:45:17.766;0;Mov;1;3912;10;-1,1293313632999664;-2,7060883949552905;0;-2,7060883949552905;-1,1293313632999664;-0,2787438760319071;6,500442518387402;6,256294442579424;5,4322946867275
18:45:17.780;0;Mov2;1;3923;8;0,7608630992118595;0;0;0,26558428878521073;0,7608630992118595;0,15193334459498123;3,662221137119663;0,36622211371196634;0,7019257179479355
18:45:17.781;0;Mov2;1;3924;10;1,162828526985992;0;0;0,3289895321512497;1,162828526985992;0,1866267951082644;2,8687398907437363;0,3357036042359691;1,3122959074678793
18:45:17.781;0;Mov2;1;3925;10;0,8493911557359538;0;0;0,4665669728690451;0,8493911557359538;0,18782311173875393;2,1362956633198036;1,1291848506118962;0,36622211371196634
18:45:17.794;0;Wrist;1;3916;11;0;2,417774075289163;-1,8889981011764885;2,417774075289163;-0,08254646592083881;-1,8889981011764885;-20,477919858394117;94,36323129978332;-3,845332193975646
18:45:17.795;0;Mov;1;3913;10;-0,8529801205290384;-1,6246101737266152;0;-1,6246101737266152;-0,8529801205290384;-0,4426404614398633;2,5025177770317697;13,428144169438765;6,19525742362743
18:45:17.795;0;Mov;1;3914;10;-0,9211706900234993;-2,535014028977325;-0,5694510077784051;-2,535014028977325;-0,9211706900234993;-0,5694510077784051;-3,5401470992156745;15,411847285378583;-1,403851435895871
18:45:17.796;0;Mov;1;3915;9;0;-3,213330580309458;-0,766844727069155;-3,213330580309458;-0,43546250205046233;-0,766844727069155;-4,608294930875576;17,700735496078373;2,410962248603778
18:45:17.810;0;Mov2;1;3926;10;1,1257423389004182;0,5945738209364605;0;0,5945738209364605;1,1257423389004182;0,17585985602416304;0,3967406231879635;1,7700735496078372;0,5493331705679495
18:45:17.810;0;Mov2;1;3927;10;0,7704336918622394;0;0;0,1292031646979049;0,7704336918622394;0,117239908983314;-0,4272591326639607;2,533036286507767;0
18:45:17.811;0;Mov2;1;3928;9;1,2094851289025543;0,5778252390934476;0;0,5778252390934476;1,2094851289025543;0,15911130398438214;-0,640888698995941;1,8921475875118259;0,7324442274239327
18:45:17.817;0;Wrist;1;3917;9;0;2,5086946756645405;-2,298141518143254;2,5086946756645405;-0,12800683316579944;-2,298141518143254;-21,576586199530016;97,50663777581103;-2,685628833887753
18:45:17.818;0;Wrist;1;3918;10;0;2,484768164235359;-2,5063020722067932;2,484768164235359;-0,1292031646979049;-2,5063020722067932;-24,506363109225745;100,71108127079073;-3,0823694570757163
18:45:17.818;0;Wrist;1;3919;11;0;2,3974365882595294;-2,942960905789361;2,3974365882595294;-0,03230079117447623;-2,942960905789361;-22,8278450880459;99,88708151493881;-3,5096285897396773
18:45:17.819;0;Wrist;1;3920;10;0;2,3687246314889983;-3,0817347674489577;2,3687246314889983;-0,02273018548518231;-3,0817347674489577;-21,820734275337994;94,36323129978332;-3,5096285897396773
18:45:17.820;0;Wrist;1;3921;9;0;2,6522537442396312;-3,201367324594867;2,6522537442396312;-0,0466566987770661;-3,201367324594867;-20,75258644367809;91,43345439008759;-3,3875545518356884
18:45:17.823;0;Mov;1;3916;10;-0,6962614945104831;-2,204828075884274;-1,0683187829981384;-2,204828075884274;-0,6962614945104831;-1,0683187829981384;1,1902218695638904;12,054811243018891;7,110812707907346
18:45:17.825;0;Mov;1;3917;10;0;-2,031360868022706;0;-2,031360868022706;-0,4258919094000824;-0,2548173646027253;2,380443739127781;9,67436750389111;6,95822016052736
