Frecuencia (Hz);100
time;timespan;canal;id;sample;gap;accX;accY;accZ;rawAccX;rawAccY;rawAccZ;rawGirX;rawGirY;rawGirZ
12:29:11.501;0;Mov;1;23886;18,15;0;0;0;0,0011963255947428648;0,0011963255947428648;-0,007177953801294938;0,09155552842799158;-0,030518509475997192;0
12:29:11.501;0;Mov;1;23887;18,15;0;0;0;0,007177953801294938;-0,003588976900647469;-0,013159581658590389;0;0;-0,030518509475997192
12:29:11.501;0;Mov;1;23888;18,15;0;0;0;0,003588976900647469;0,0023926511894857296;-0,01674855762788686;-0,061037018951994385;0,18311105685598317;-0,030518509475997192
12:29:11.501;0;Mov;1;23889;18,15;0;0;0;0,00837427881394343;0,007177953801294938;-0,019141209515885837;0,061037018951994385;0,09155552842799158;0,030518509475997192
12:29:11.501;0;Mov;1;23890;18,15;0;0;0;0,019141209515885837;0;-0,010766930701942408;0,09155552842799158;0,09155552842799158;0
12:29:11.503;0;Mov;1;23891;15,94;0;0;0;0,03230079117447623;-0,02273018548518231;-0,01674855762788686;0,09155552842799158;0,09155552842799158;-0,061037018951994385
12:29:11.503;0;Mov;1;23892;15,94;0;0;0;0,004785302378971459;-0,021533861403884816;0,00837427881394343;0,15259254737998595;0,21362956633198035;0
12:29:11.503;0;Mov;1;23893;15,94;0;0;0;-0,013159581658590389;0,003588976900647469;0,01674855762788686;0,12207403790398877;0,3357036042359691;0
12:29:11.503;0;Mov;1;23894;15,94;0;0;0;0,020337535459885328;0,007177953801294938;-0,013159581658590389;0,061037018951994385;0,18311105685598317;-0,21362956633198035
12:29:11.503;0;Mov;1;23895;15,94;0;0;0;0,02273018548518231;-0,019141209515885837;-0,00837427881394343;0,09155552842799158;0,3051850947599719;-0,12207403790398877
12:29:11.504;0;Mov;1;23896;14,18;0;0;0;0,031104465230476736;-0,01794488357188635;-0,01674855762788686;0,21362956633198035;0,45777764213995786;0
12:29:11.504;0;Mov;1;23897;14,18;0;0;0;0,0478530228583636;0,009570604757942918;-0,021533861403884816;0,3051850947599719;0,3967406231879635;0,061037018951994385
12:29:11.504;0;Mov;1;23898;14,18;0;0;0;0,014355907602589877;-0,014355907602589877;-0,014355907602589877;0,21362956633198035;0,5493331705679495;0,21362956633198035
12:29:11.504;0;Mov;1;23899;14,18;0;0;0;-0,009570604757942918;-0,004785302378971459;0,01794488357188635;0,24414807580797754;0,7629627368999298;0,27466658528397475
12:29:11.504;0;Mov;1;23900;14,18;0;0;0;-0,025122837373181287;0,019141209515885837;0,00598162785729545;0,3051850947599719;0,7019257179479355;0,3051850947599719
12:29:11.506;0;Mov;1;23901;12,81;0;0;0;-0,007177953801294938;0,007177953801294938;0,014355907602589877;0,21362956633198035;0,6714072084719382;0,18311105685598317
12:29:11.506;0;Mov;1;23902;12,81;0;0;0;-0,0119632557145909;-0,003588976900647469;0,0119632557145909;0,3051850947599719;0,7324442274239327;0,15259254737998595
12:29:11.506;0;Mov;1;23903;12,81;0;0;0;-0,026319163317180778;-0,0023926511894857296;0,015552232615238368;0,3357036042359691;0,640888698995941;0,15259254737998595
12:29:11.506;0;Mov;1;23904;12,81;0;0;0;-0,0011963255947428648;-0,0011963255947428648;0,02273018548518231;0,15259254737998595;0,5493331705679495;0
12:29:11.506;0;Mov;1;23905;12,81;0;0;0;-0,00598162785729545;-0,013159581658590389;0;0,27466658528397475;0,5188146610919523;0,12207403790398877
12:29:11.507;0;Wrist;1;4654;12,52;0;0;0;0,013159581658590389;-0,02990813928647725;-0,009570604757942918;-0,3967406231879635;1,6785180211798456;-1,281777397991882
12:29:11.507;0;Wrist;1;4655;12,52;0;0;0;-0,00598162785729545;-0,0011963255947428648;0,015552232615238368;-0,18311105685598317;1,73955504013184;-1,0681478316599018
12:29:11.507;0;Wrist;1;4656;12,52;0;0;0;-0,026319163317180778;0,0023926511894857296;0,0346934430624752;-0,24414807580797754;1,586962492751854;-1,0681478316599018
12:29:11.507;0;Wrist;1;4657;12,52;0;0;0;-0,03230079117447623;-0,007177953801294938;0,02273018548518231;-0,18311105685598317;1,4343699453718681;-0,9460737937559129
12:29:11.507;0;Wrist;1;4658;12,52;0;0;0;-0,00598162785729545;-0,01794488357188635;0;-0,21362956633198035;1,281777397991882;-0,793481246375927
12:29:11.509;0;Mov;1;23906;11,71;0;0;0;0,00837427881394343;-0,02273018548518231;0;0,3051850947599719;0,4882961516159551;0,21362956633198035
12:29:11.510;0;Mov;1;23907;11,71;0;0;0;-0,004785302378971459;-0,0011963255947428648;0,0239265114291818;0,3051850947599719;0,3357036042359691;0,3051850947599719
12:29:11.510;0;Mov;1;23908;11,71;0;0;0;-0,010766930701942408;0,02273018548518231;0,025122837373181287;0,3051850947599719;0,3357036042359691;0,18311105685598317
12:29:11.510;0;Mov;1;23909;11,71;0;0;0;-0,009570604757942918;0,010766930701942408;0,014355907602589877;0,27466658528397475;0,27466658528397475;0,061037018951994385
12:29:11.510;0;Mov;1;23910;11,71;0;0;0;-0,009570604757942918;0,010766930701942408;0,040675070919770656;0,3051850947599719;0,12207403790398877;0,09155552842799158
12:29:11.510;0;Mov;1;23911;10,75;0;0;0;-0,00598162785729545;0,028711815205179753;0,019141209515885837;0,24414807580797754;0;0
12:29:11.510;0;Mov;1;23912;10,75;0;0;0;-0,020337535459885328;0,0011963255947428648;0,01794488357188635;0,030518509475997192;0;-0,12207403790398877
12:29:11.510;0;Mov;1;23913;10,75;0;0;0;-0,027515489261180266;-0,010766930701942408;0,028711815205179753;0,061037018951994385;-0,09155552842799158;-0,21362956633198035
12:29:11.511;0;Mov;1;23914;10,75;0;0;0;-0,003588976900647469;-0,013159581658590389;0,009570604757942918;0,061037018951994385;-0,12207403790398877;-0,24414807580797754
12:29:11.511;0;Mov;1;23915;10,75;0;0;0;0;-0,026319163317180778;0,0023926511894857296;0,030518509475997192;-0,12207403790398877;-0,18311105685598317
12:29:11.511;0;Wrist;1;4659;11,35;0;0;0;-0,013159581658590389;0;-0,0239265114291818;0;1,0376293221839046;-0,6103701895199438
12:29:11.511;0;Wrist;1;4660;11,35;0;0;0;-0,0023926511894857296;0,01674855762788686;-0,01674855762788686;-0,15259254737998595;0,9460737937559129;-0,6103701895199438
12:29:11.511;0;Wrist;1;4661;11,35;0;0;0;-0,031104465230476736;-0,00598162785729545;0,0239265114291818;-0,36622211371196634;0,8545182653279214;-0,5798516800439466
12:29:11.511;0;Wrist;1;4662;11,35;0;0;0;-0,04187139500106815;0;0,026319163317180778;-0,3967406231879635;0,7019257179479355;-0,5188146610919523
12:29:11.511;0;Wrist;1;4663;11,35;0;0;0;-0,026319163317180778;0,009570604757942918;0,0119632557145909;-0,21362956633198035;0,6103701895199438;-0,4882961516159551
12:29:11.512;0;Wrist;1;4664;10,34;0;0;0;-0,0119632557145909;0;0,007177953801294938;-0,24414807580797754;0,4882961516159551;-0,5493331705679495
12:29:11.512;0;Wrist;1;4665;10,34;0;0;0;-0,026319163317180778;-0,014355907602589877;0,010766930701942408;-0,18311105685598317;0,24414807580797754;-0,5188146610919523
12:29:11.512;0;Wrist;1;4666;10,34;0;0;0;-0,01674855762788686;-0,0119632557145909;0,009570604757942918;-0,030518509475997192;0,24414807580797754;-0,3357036042359691
12:29:11.512;0;Wrist;1;4667;10,34;0;0;0;-0,00598162785729545;0;-0,00837427881394343;0;0,12207403790398877;-0,24414807580797754
12:29:11.512;0;Wrist;1;4668;10,34;0;0;0;0,004785302378971459;-0,00837427881394343;0,003588976900647469;0,12207403790398877;0;-0,15259254737998595
12:29:11.531;0;Wrist;1;4669;9,79;0;0;0;-0,020337535459885328;-0,0023926511894857296;0,003588976900647469;0,030518509475997192;-0,061037018951994385;0
12:29:11.531;0;Wrist;1;4670;9,79;0;0;0;-0,020337535459885328;-0,003588976900647469;0,0011963255947428648;0,15259254737998595;0;0,030518509475997192
12:29:11.531;0;Wrist;1;4671;9,79;0;0;0;-0,015552232615238368;-0,0023926511894857296;-0,014355907602589877;0,3051850947599719;-0,15259254737998595;0,09155552842799158
12:29:11.531;0;Wrist;1;4672;9,79;0;0;0;0,014355907602589877;-0,01674855762788686;-0,027515489261180266;0,27466658528397475;-0,21362956633198035;0,24414807580797754
12:29:11.531;0;Wrist;1;4673;9,79;0;0;0;0,01794488357188635;0,0011963255947428648;-0,0119632557145909;0,27466658528397475;-0,12207403790398877;0,3357036042359691
12:29:11.556;0;Mov;1;23916;10,63;0;0;0;-0,0239265114291818;-0,0346934430624752;-0,0023926511894857296;0,15259254737998595;-0,3051850947599719;0
12:29:11.557;0;Mov;1;23917;10,63;0;0;0;-0,00837427881394343;-0,0119632557145909;0,004785302378971459;0,09155552842799158;-0,21362956633198035;0
12:29:11.557;0;Mov;1;23918;10,63;0;0;0;-0,010766930701942408;-0,004785302378971459;0,00837427881394343;0,24414807580797754;-0,3357036042359691;-0,09155552842799158
12:29:11.557;0;Mov;1;23919;10,63;0;0;0;0;-0,004785302378971459;0;0,15259254737998595;-0,3051850947599719;0
12:29:11.557;0;Mov;1;23920;10,63;0;0;0;-0,0119632557145909;-0,0011963255947428648;0,03230079117447623;0,15259254737998595;-0,24414807580797754;0,030518509475997192
12:29:11.582;0;Mov;1;23921;10,23;0;0;0;-0,0011963255947428648;-0,007177953801294938;-0,007177953801294938;0,09155552842799158;-0,27466658528397475;0,030518509475997192
12:29:11.582;0;Mov;1;23922;10,23;0;0;0;0,014355907602589877;0,00837427881394343;-0,0023926511894857296;0,12207403790398877;-0,3051850947599719;-0,030518509475997192
12:29:11.582;0;Mov;1;23923;10,23;0;0;0;-0,007177953801294938;0;0,00837427881394343;0,27466658528397475;-0,24414807580797754;0,15259254737998595
12:29:11.582;0;Mov;1;23924;10,23;0;0;0;0,004785302378971459;0,007177953801294938;0,007177953801294938;0,12207403790398877;-0,24414807580797754;0,09155552842799158
12:29:11.582;0;Mov;1;23925;10,23;0;0;0;-0,009570604757942918;0,00837427881394343;0,01674855762788686;-0,030518509475997192;-0,24414807580797754;-0,09155552842799158
12:29:11.614;0;Mov;1;23926;9,97;0;0;0;0;0,00837427881394343;0,0023926511894857296;0,061037018951994385;-0,3051850947599719;-0,09155552842799158
12:29:11.614;0;Mov;1;23927;9,97;0;0;0;0,003588976900647469;0,009570604757942918;0,0119632557145909;-0,030518509475997192;-0,3051850947599719;-0,09155552842799158
12:29:11.614;0;Mov;1;23928;9,97;0;0;0;0,004785302378971459;0,0011963255947428648;0,013159581658590389;0;-0,24414807580797754;-0,18311105685598317
12:29:11.614;0;Mov;1;23929;9,97;0;0;0;-0,0023926511894857296;0;0,01794488357188635;-0,061037018951994385;-0,24414807580797754;0
12:29:11.614;0;Mov;1;23930;9,97;0;0;0;-0,0119632557145909;0;0,025122837373181287;-0,24414807580797754;-0,12207403790398877;0
12:29:11.621;0;Wrist;1;4674;10,42;0;0;0;0,00598162785729545;0,010766930701942408;-0,025122837373181287;0,3357036042359691;-0,061037018951994385;0,24414807580797754
12:29:11.621;0;Wrist;1;4675;10,42;0;0;0;0,01674855762788686;-0,0023926511894857296;-0,004785302378971459;0,3051850947599719;-0,21362956633198035;0,12207403790398877
12:29:11.621;0;Wrist;1;4676;10,42;0;0;0;0,020337535459885328;0;-0,009570604757942918;0,4272591326639607;-0,18311105685598317;0,27466658528397475
12:29:11.621;0;Wrist;1;4677;10,42;0;0;0;0,01674855762788686;0,013159581658590389;-0,03230079117447623;0,3357036042359691;-0,3051850947599719;0,3051850947599719
12:29:11.621;0;Wrist;1;4678;10,42;0;0;0;0,0119632557145909;0,013159581658590389;-0,004785302378971459;0,21362956633198035;-0,3051850947599719;0,27466658528397475
12:29:11.621;0;Wrist;1;4679;9,69;0;0;0;0,007177953801294938;-0,0023926511894857296;-0,01794488357188635;0,15259254737998595;-0,3051850947599719;0,24414807580797754
12:29:11.621;0;Wrist;1;4680;9,69;0;0;0;-0,00837427881394343;0,0011963255947428648;0;0;-0,21362956633198035;0,15259254737998595
12:29:11.621;0;Wrist;1;4681;9,69;0;0;0;-0,0023926511894857296;-0,010766930701942408;0,0023926511894857296;0,030518509475997192;-0,3967406231879635;0,15259254737998595
12:29:11.621;0;Wrist;1;4682;9,69;0;0;0;0,0011963255947428648;-0,019141209515885837;0,004785302378971459;0,15259254737998595;-0,36622211371196634;0,3051850947599719
12:29:11.622;0;Wrist;1;4683;9,69;0;0;0;-0,004785302378971459;0,009570604757942918;0;0,030518509475997192;-0,5493331705679495;0,3051850947599719
12:29:11.679;0;Wrist;1;4684;9,81;0;0;0;-0,0119632557145909;-0,00837427881394343;0,0011963255947428648;0,12207403790398877;-0,7324442274239327;0,3967406231879635
12:29:11.679;0;Wrist;1;4685;9,81;0;0;0;-0,02273018548518231;0,0011963255947428648;0,019141209515885837;0,21362956633198035;-0,9155552842799157;0,5188146610919523
12:29:11.679;0;Wrist;1;4686;9,81;0;0;0;-0,02990813928647725;0,014355907602589877;0,026319163317180778;0,15259254737998595;-1,0681478316599018;0,5798516800439466
12:29:11.679;0;Wrist;1;4687;9,81;0;0;0;-0,038282419031771674;0,019141209515885837;0,05383465071565905;0;-1,281777397991882;0,640888698995941
12:29:11.679;0;Wrist;1;4688;9,81;0;0;0;-0,08254646592083881;0,00598162785729545;0,0598162785729545;0;-1,8311105685598315;0,793481246375927
12:29:11.703;0;Mov;1;23931;10,47;0;0;0;-0,007177953801294938;-0,00598162785729545;0;-0,12207403790398877;-0,18311105685598317;-0,12207403790398877
12:29:11.703;0;Mov;1;23932;10,47;0;0;0;-0,01794488357188635;-0,010766930701942408;0,0119632557145909;-0,030518509475997192;-0,27466658528397475;-0,030518509475997192
12:29:11.703;0;Mov;1;23933;10,47;0;0;0;-0,020337535459885328;-0,003588976900647469;0,019141209515885837;-0,09155552842799158;-0,4272591326639607;-0,09155552842799158
12:29:11.703;0;Mov;1;23934;10,47;0;0;0;-0,014355907602589877;-0,00598162785729545;0,013159581658590389;0,030518509475997192;-0,5188146610919523;-0,18311105685598317
12:29:11.703;0;Mov;1;23935;10,47;0;0;0;-0,025122837373181287;0,009570604757942918;0,013159581658590389;-0,030518509475997192;-0,6103701895199438;-0,12207403790398877
12:29:11.732;0;Mov;1;23936;10,19;0;0;0;-0,028711815205179753;0,013159581658590389;0,02990813928647725;-0,061037018951994385;-0,7019257179479355;-0,27466658528397475
12:29:11.732;0;Mov;1;23937;10,19;0;0;0;-0,0466566987770661;-0,004785302378971459;0,019141209515885837;0;-0,793481246375927;-0,36622211371196634
12:29:11.732;0;Mov;1;23938;10,19;0;0;0;-0,0466566987770661;0,003588976900647469;0,040675070919770656;0,12207403790398877;-0,8545182653279214;-0,4272591326639607
12:29:11.732;0;Mov;1;23939;10,19;0;0;0;-0,03349711525577372;0,00837427881394343;0,0358897671437727;0,061037018951994385;-1,098666341135899;-0,4882961516159551
12:29:11.732;0;Mov;1;23940;10,19;0;0;0;-0,010766930701942408;-0,014355907602589877;0,0358897671437727;0,18311105685598317;-1,3428144169438765;-0,5188146610919523
12:29:11.749;0;Wrist;1;4689;10,07;0;0;0;-0,08493911408343378;0,00598162785729545;0,0837427900021363;-0,09155552842799158;-2,197332682271798;0,9765923032319102
12:29:11.749;0;Wrist;1;4690;10,07;0;0;0;-0,04187139500106815;-0,0119632557145909;0,00837427881394343;-0,3357036042359691;-2,807702871791742;1,3733329264198737
12:29:11.749;0;Wrist;1;4691;10,07;0;0;0;0,08493911408343378;0,00598162785729545;-0,08733176969683676;-0,5798516800439466;-3,295999023407697;1,5564439832758568
12:29:11.750;0;Wrist;1;4692;10,07;0;0;0;0,119632557145909;0,03947874311306917;-0,09092074194072924;-0,640888698995941;-3,173924985503708;1,3428144169438765
12:29:11.750;0;Wrist;1;4693;10,07;0;0;0;0,06101260637965598;-0,010766930701942408;-0,09092074194072924;-1,0376293221839046;-2,838221381267739;0,8545182653279214
12:29:11.763;0;Mov;1;23941;9,97;0;0;0;-0,0023926511894857296;0;0,02273018548518231;0,15259254737998595;-1,4343699453718681;-0,5188146610919523
12:29:11.763;0;Mov;1;23942;9,97;0;0;0;-0,0023926511894857296;-0,00598162785729545;0,007177953801294938;0,24414807580797754;-1,5259254737998595;-0,5493331705679495
12:29:11.763;0;Mov;1;23943;9,97;0;0;0;0,010766930701942408;-0,02273018548518231;-0,0023926511894857296;0,36622211371196634;-1,3733329264198737;-0,7324442274239327
12:29:11.763;0;Mov;1;23944;9,97;0;0;0;0,003588976900647469;-0,02273018548518231;0;0,45777764213995786;-1,4343699453718681;-0,6714072084719382
12:29:11.763;0;Mov;1;23945;9,97;0;0;0;0,010766930701942408;-0,009570604757942918;-0,013159581658590389;0,4272591326639607;-1,3733329264198737;-0,5188146610919523
12:29:11.770;0;Wrist;1;4694;9,74;0;0;0;0,1076693014313181;-0,04546037097036462;-0,07536851398224585;-0,8850367748039186;-2,6245918149357585;0,6714072084719382
12:29:11.770;0;Wrist;1;4695;9,74;0;0;0;0,05503097852236053;0,007177953801294938;-0,03349711525577372;-0,6103701895199438;-2,1057771538438064;0,4882961516159551
12:29:11.770;0;Wrist;1;4696;9,74;0;0;0;0,014355907602589877;0;-0,0011963255947428648;-0,36622211371196634;-1,73955504013184;0,3967406231879635
12:29:11.771;0;Wrist;1;4697;9,74;0;0;0;0,009570604757942918;-0,025122837373181287;-0,015552232615238368;-0,3051850947599719;-1,5564439832758568;0,3051850947599719
12:29:11.771;0;Wrist;1;4698;9,74;0;0;0;0,0023926511894857296;-0,01794488357188635;-0,010766930701942408;-0,030518509475997192;-1,5259254737998595;0,3967406231879635
12:29:11.853;0;Mov;1;23946;10,41;0;0;0;0,03947874311306917;0;-0,014355907602589877;0,5188146610919523;-1,3733329264198737;-0,36622211371196634
12:29:11.854;0;Mov;1;23947;10,41;0;0;0;0,04306772280776963;0,004785302378971459;-0,009570604757942918;0,6103701895199438;-1,2207403790398876;-0,3967406231879635
12:29:11.854;0;Mov;1;23948;10,41;0;0;0;0,0466566987770661;-0,009570604757942918;-0,00598162785729545;0,5188146610919523;-1,0681478316599018;-0,24414807580797754
12:29:11.854;0;Mov;1;23949;10,41;0;0;0;0,007177953801294938;-0,0023926511894857296;-0,015552232615238368;0,6103701895199438;-0,9765923032319102;-0,030518509475997192
12:29:11.854;0;Mov;1;23950;10,41;0;0;0;0,08015381775824382;0,01674855762788686;-0,06220893046095347;0,36622211371196634;-0,9460737937559129;-0,09155552842799158
12:29:11.915;0;Mov;1;23951;10,5;0;0;0;0,08852809377813425;-0,06101260637965598;-0,03349711525577372;0,3051850947599719;-0,4272591326639607;0
12:29:11.915;0;Mov;1;23952;10,5;0;0;0;0,025122837373181287;-0,00837427881394343;-0,026319163317180778;0,3967406231879635;0,15259254737998595;0,27466658528397475
12:29:11.915;0;Mov;1;23953;10,5;0;0;0;0,09690236979802469;0,02990813928647725;-0,0478530228583636;0,36622211371196634;0,24414807580797754;0,27466658528397475
12:29:11.915;0;Mov;1;23954;10,5;0;0;0;0,08254646592083881;-0,04426404688906713;-0,007177953801294938;0,3357036042359691;0,5493331705679495;0,3357036042359691
12:29:11.916;0;Mov;1;23955;10,5;0;0;0;-0,0239265114291818;-0,0478530228583636;0,0119632557145909;0,3051850947599719;0,9460737937559129;0,5798516800439466
12:29:11.916;0;Mov;1;23956;10,02;0;0;0;-0,014355907602589877;0,0011963255947428648;0,004785302378971459;0,4882961516159551;0,7324442274239327;0,5493331705679495
12:29:11.916;0;Mov;1;23957;10,02;0;0;0;-0,07656483806354335;-0,027515489261180266;0,06220893046095347;0,4272591326639607;0,7019257179479355;0,5493331705679495
12:29:11.918;0;Mov;1;23958;10,02;0;0;0;-0,06460158234895245;-0,0119632557145909;0,07656483806354335;0,18311105685598317;0,36622211371196634;0,7629627368999298
12:29:11.918;0;Mov;1;23959;10,02;0;0;0;-0,05503097852236053;-0,03349711525577372;0,03947874311306917;0,18311105685598317;0,09155552842799158;0,8239997558519242
12:29:11.918;0;Mov;1;23960;10,02;0;0;0;-0,17825251908837397;0,10886562551261558;0,14834437980189671;0,18311105685598317;-0,3357036042359691;0,7324442274239327
12:29:11.921;0;Wrist;1;4699;10,86;0;0;0;0;-0,013159581658590389;0,015552232615238368;0,21362956633198035;-1,5564439832758568;0,7019257179479355
12:29:11.921;0;Wrist;1;4700;10,86;0;0;0;-0,009570604757942918;-0,0011963255947428648;-0,0023926511894857296;0,36622211371196634;-1,6785180211798456;0,8850367748039186
12:29:11.921;0;Wrist;1;4701;10,86;0;0;0;-0,0023926511894857296;0,01794488357188635;-0,010766930701942408;0,3967406231879635;-1,73955504013184;0,9460737937559129
12:29:11.921;0;Wrist;1;4702;10,86;0;0;0;0,025122837373181287;0,013159581658590389;-0,0598162785729545;0,18311105685598317;-1,922666096987823;0,9460737937559129
12:29:11.921;0;Wrist;1;4703;10,86;0;0;0;0,10886562551261558;-0,0119632557145909;-0,13039949623001038;-0,061037018951994385;-1,8616290780358287;0,8239997558519242
12:29:11.950;0;Wrist;1;4704;10,59;0;0;0;0,12202521275931195;0,014355907602589877;-0,0933133975541322;-0,12207403790398877;-1,3733329264198737;0,640888698995941
12:29:11.950;0;Wrist;1;4705;10,59;0;0;0;0,08135014183954131;0,028711815205179753;-0,08135014183954131;-0,21362956633198035;-1,0071108127079074;0,3051850947599719
12:29:11.950;0;Wrist;1;4706;10,59;0;0;0;0,06340525826765496;-0,007177953801294938;-0,028711815205179753;-0,15259254737998595;-0,6714072084719382;0
12:29:11.950;0;Wrist;1;4707;10,59;0;0;0;0,010766930701942408;0,01674855762788686;-0,009570604757942918;-0,15259254737998595;-0,18311105685598317;0
12:29:11.950;0;Wrist;1;4708;10,59;0;0;0;0,01794488357188635;0,0023926511894857296;-0,020337535459885328;-0,3967406231879635;0;-0,24414807580797754
12:29:11.952;0;Wrist;1;4709;10,09;0;0;0;-0,014355907602589877;0,0023926511894857296;-0,004785302378971459;-0,4882961516159551;-0,030518509475997192;-0,3051850947599719
12:29:11.952;0;Wrist;1;4710;10,09;0;0;0;-0,025122837373181287;0,013159581658590389;0,003588976900647469;-0,45777764213995786;-0,24414807580797754;-0,15259254737998595
12:29:11.952;0;Wrist;1;4711;10,09;0;0;0;-0,0011963255947428648;0,0011963255947428648;-0,010766930701942408;-0,5798516800439466;-0,36622211371196634;0
12:29:11.952;0;Wrist;1;4712;10,09;0;0;0;-0,027515489261180266;-0,00837427881394343;0,02990813928647725;-0,640888698995941;-0,3051850947599719;0,061037018951994385
12:29:11.952;0;Wrist;1;4713;10,09;0;0;0;-0,028711815205179753;0,0011963255947428648;0,04546037097036462;-0,640888698995941;-0,5798516800439466;-0,061037018951994385
12:29:11.981;0;Wrist;1;4714;9,88;0;0;0;-0,05144199882766007;0,01794488357188635;0,03708609495047418;-0,5798516800439466;-0,7324442274239327;0,030518509475997192
12:29:11.981;0;Wrist;1;4715;9,88;0;0;0;-0,06699423051154745;0,02990813928647725;0,06460158234895245;-0,7324442274239327;-1,1902218695638904;0,24414807580797754
12:29:11.981;0;Wrist;1;4716;9,88;0;0;0;-0,09690236979802469;0,020337535459885328;0,11006195704472106;-0,9460737937559129;-1,7090365306558428;0,4882961516159551
12:29:11.981;0;Wrist;1;4717;9,88;0;0;0;-0,08015381775824382;0,025122837373181287;0,12082888867801446;-1,1597033600878932;-2,410962248603778;0,6714072084719382
12:29:11.981;0;Wrist;1;4718;9,88;0;0;0;-0,019141209515885837;0,06579790643024995;0,05742363041035951;-1,6174810022278512;-3,0823694570757163;0,7629627368999298
12:29:12.047;0;Wrist;1;4719;10,04;0;0;0;-0,03230079117447623;0,07297585836884289;0,038282419031771674;-2,6245918149357585;-3,5096285897396773;0,640888698995941
12:29:12.048;0;Wrist;1;4720;10,04;0;0;0;-0,09211707347283471;0,11484726082071901;0,06579790643024995;-3,6011841181676685;-4,699850459303567;0,6103701895199438
12:29:12.048;0;Wrist;1;4721;10,04;0;0;0;-0,08135014183954131;0,18303781541356395;0,038282419031771674;-5,1576281014435255;-6,591998046815394;0,5493331705679495
12:29:12.048;0;Wrist;1;4722;10,04;0;0;0;0,0717795342875454;0,03947874311306917;-0,04546037097036462;-6,0121463667714465;-7,110812707907346;0,45777764213995786
12:29:12.048;0;Wrist;1;4723;10,04;0;0;0;0,07297585836884289;0,05024567474636257;-0,10408032918742562;-5,645924253059481;-6,347849971007416;0,24414807580797754
12:29:12.063;0;Mov;1;23961;10,89;0;0;0;-0,0598162785729545;0,0011963255947428648;0,0705832102062479;0,030518509475997192;-1,098666341135899;0,21362956633198035
12:29:12.063;0;Mov;1;23962;10,89;0;0;0;-0,12202521275931195;-0,021533861403884816;0,07536851398224585;0,27466658528397475;-1,4954069643238623;0,18311105685598317
12:29:12.064;0;Mov;1;23963;10,89;0;0;0;-0,13279214439260537;0,0011963255947428648;0,12800683316579944;0,4882961516159551;-2,1057771538438064;0,3357036042359691
12:29:12.064;0;Mov;1;23964;10,89;0;0;0;-0,2667806203173162;-0,027515489261180266;0,2596026609279153;0,18311105685598317;-3,3875545518356884;0,3967406231879635
12:29:12.064;0;Mov;1;23965;10,89;0;0;0;-0,2739585499034852;0,07656483806354335;0,2273018585772271;0,09155552842799158;-5,066072573015534;0,18311105685598317
12:29:12.064;0;Mov;1;23966;10,42;0;0;0;-0,2476394052133244;-0,03230079117447623;0,17227089123107853;-0,030518509475997192;-7,293923764763329;-0,3357036042359691
12:29:12.064;0;Mov;1;23967;10,42;0;0;0;-0,47135229899746695;-0,1064729773500206;0,2823328408249916;-0,36622211371196634;-10,254219183935056;-0,5493331705679495
12:29:12.064;0;Mov;1;23968;10,42;0;-0,6125187045083468;0;-0,6125187045083468;-0,07297585836884289;0,4019653979709006;0,3967406231879635;-15,747550889614551;-1,1597033600878932
12:29:12.064;0;Mov;1;23969;10,42;0;0;0;-0,03349711525577372;0,0598162785729545;-0,040675070919770656;1,7090365306558428;-20,11169774468215;-2,5025177770317697
12:29:12.065;0;Mov;1;23970;10,42;0;0;0;0,30027772439687794;-0,06220893046095347;-0,28472550388920254;0,5188146610919523;-20,44740134891812;-2,5940733054597613
12:29:12.065;0;Mov;1;23971;10;0;0;0;0,36846829389133884;-0,09929502541142765;-0,28831446868228705;0,5493331705679495;-18,524735251930295;-1,8005920590838342
12:29:12.065;0;Mov;1;23972;10;0;0;0;0,20935697500534073;-0,05144199882766007;-0,11125828112601856;1,2207403790398876;-15,808587908566546;-0,9155552842799157
12:29:12.065;0;Mov;1;23973;10;0;0;0;-0,0239265114291818;-0,0717795342875454;-0,10886562551261558;1,403851435895871;-14,496292001098666;-0,36622211371196634
12:29:12.065;0;Mov;1;23974;10;0;0;0;0,20696432684274574;-0,03349711525577372;-0,14475540010719626;1,7700735496078372;-14,313180944242683;-0,12207403790398877
12:29:12.065;0;Mov;1;23975;10;0;0;0;0,3146336431756798;0,0346934430624752;-0,18303781541356395;2,197332682271798;-12,543107394634847;0
12:29:12.070;0;Wrist;1;4724;9,81;0;0;0;0,11365092928861355;0,031104465230476736;-0,09690236979802469;-5,920590838343455;-5,829035309915464;0
12:29:12.071;0;Wrist;1;4725;9,81;0;0;0;0,031104465230476736;0,03230079117447623;-0,040675070919770656;-5,798516800439467;-5,554368724631489;-0,4882961516159551
12:29:12.071;0;Wrist;1;4726;9,81;0;0;0;-0,04306772280776963;0,003588976900647469;-0,052638326634361556;-6,073183385723441;-5,76799829096347;-0,5493331705679495
12:29:12.071;0;Wrist;1;4727;9,81;0;0;0;0,09690236979802469;-0,08254646592083881;-0,21773125102523117;-6,103701895199438;-5,859553819391461;-0,4272591326639607
12:29:12.071;0;Wrist;1;4728;9,81;0;0;0;0,3146336431756798;-0,14236275194460127;-0,38043154960592973;-5,401776177251503;-5,188146610919523;-0,4272591326639607
12:29:12.122;0;Mov;1;23976;10,06;0;0;0;0,28352917235709707;0,003588976900647469;-0,19739371929074984;2,410962248603778;-9,67436750389111;0,3357036042359691
12:29:12.123;0;Mov;1;23977;10,06;0;0;0;0,30027772439687794;0,0346934430624752;-0,22012391408944212;2,410962248603778;-6,95822016052736;0,45777764213995786
12:29:12.123;0;Mov;1;23978;10,06;0;0;0;0,23567614949873347;0,11245460520731605;-0,17466353939367352;2,1362956633198036;-4,1810357982116155;0,5493331705679495
12:29:12.124;0;Mov;1;23979;10,06;0;0;0;0,19500107112815485;0,07417218990094836;-0,17466353939367352;1,7700735496078372;-1,6174810022278512;0,3357036042359691
12:29:12.124;0;Mov;1;23980;10,06;0;0;0;0,3433454509300516;0,08613544561553926;-0,2739585499034852;2,044740134891812;0,15259254737998595;0,15259254737998595
12:29:12.130;0;Wrist;1;4729;9,89;0;0;0;0,236872466129223;-0,10168767357402264;-0,15552232428968168;-4,394665364543596;-3,326517532883694;-0,8239997558519242
12:29:12.130;0;Wrist;1;4730;9,89;0;0;0;0,013159581658590389;-0,13039949623001038;-0,19500107112815485;-3,7537766655476545;-1,922666096987823;-1,2207403790398876
12:29:12.130;0;Wrist;1;4731;9,89;0;0;0;0,24165777735602892;-0,236872466129223;-0,22132023071993165;-3,2349620044557024;-2,044740134891812;-0,9155552842799157
12:29:12.130;0;Wrist;1;4732;9,89;0;0;0;0,02273018548518231;-0,08733176969683676;-0,08613544561553926;-2,1057771538438064;-0,9155552842799157;-0,7324442274239327
12:29:12.130;0;Wrist;1;4733;9,89;0;0;0;0,04306772280776963;-0,22969452164143803;-0,14834437980189671;-1,3122959074678793;-0,9765923032319102;-0,3051850947599719
12:29:12.212;0;Mov;1;23981;10,36;0;0;0;0,48690451950514235;0,08254646592083881;-0,3660756308271279;2,6245918149357585;2,807702871791742;0,12207403790398877
12:29:12.212;0;Mov;1;23982;10,36;0;0;0;0,35770133990562153;0,10408032918742562;-0,234479817966628;3,326517532883694;6,4394054994354075;0,36622211371196634
12:29:12.212;0;Mov;1;23983;10,36;0;0;0;0,2787438760319071;0,11245460520731605;-0,19021577480296487;2,9602954191717274;9,949034089175084;0,3357036042359691
12:29:12.212;0;Mov;1;23984;10,36;0;0;0;0,44862208929715874;0,10886562551261558;-0,2512283700064089;2,5940733054597613;13,672292245246743;0,030518509475997192
12:29:12.212;0;Mov;1;23985;10,36;0;0;0;0,22610554194673757;-0,031104465230476736;-0,12322153684060945;2,3499252296517836;17,365031891842403;0,061037018951994385
12:29:12.214;0;Mov;1;23986;9,99;0;0;0;-0,058619954491657;0,013159581658590389;0,020337535459885328;1,7090365306558428;19,104586931974243;0,45777764213995786
12:29:12.214;0;Mov;1;23987;9,99;0;0;0;-0,06340525826765496;0,10527665326872311;0,1543260076591922;0,9460737937559129;18,738364818262276;0,45777764213995786
12:29:12.214;0;Mov;1;23988;9,99;0;0;0;-0,4653706711401715;-0,10886562551261558;0,2895108002143925;0;17,242957853938414;0,5188146610919523
12:29:12.214;0;Mov;1;23989;9,99;0;-0,7225806690038759;0,5072420661412397;-0,7225806690038759;-0,08613544561553926;0,5072420661412397;-0,8239997558519242;13,031403546250802;0,8850367748039186
12:29:12.214;0;Mov;1;23990;9,99;0;-0,6890835649243141;0,5610767168568987;-0,6890835649243141;-0,031104465230476736;0,5610767168568987;-0,793481246375927;7,293923764763329;0,45777764213995786
12:29:12.220;0;Wrist;1;4734;10,22;0;0;0;0,32061527103297527;-0,12800683316579944;-0,28352917235709707;-0,15259254737998595;-0,640888698995941;0,36622211371196634
12:29:12.221;0;Wrist;1;4735;10,22;0;0;0;0,119632557145909;0,020337535459885328;-0,09929502541142765;0,9155552842799157;1,2512588885158848;0,09155552842799158
12:29:12.221;0;Wrist;1;4736;10,22;0;0;0;0,014355907602589877;-0,11484726082071901;-0,0346934430624752;1,6785180211798456;2,2583697012237924;0
12:29:12.221;0;Wrist;1;4737;10,22;0;0;0;0,1315958128604999;-0,02273018548518231;-0,07536851398224585;2,6245918149357585;2,9908139286477247;0,3051850947599719
12:29:12.221;0;Wrist;1;4738;10,22;0;0;0;0,09211707347283471;0,040675070919770656;0,02273018548518231;3,173924985503708;4,272591326639607;0,12207403790398877
12:29:12.222;0;Wrist;1;4739;9,84;0;0;0;-0,028711815205179753;0,0358897671437727;0,11125828112601856;3,3875545518356884;5,249183629871517;-0,3051850947599719
12:29:12.223;0;Wrist;1;4740;9,84;0;0;0;-0,10049134949272515;0,11245460520731605;0,13039949623001038;3,0823694570757163;5,096591082491531;-0,5493331705679495
12:29:12.223;0;Wrist;1;4741;9,84;0;0;0;-0,14954069643238624;0,020337535459885328;0,17585985602416304;2,6245918149357585;4,272591326639607;-0,7629627368999298
12:29:12.223;0;Wrist;1;4742;9,84;0;0;0;-0,17466353939367352;0,031104465230476736;0,14954069643238624;2,410962248603778;3,0823694570757163;-0,6714072084719382
12:29:12.223;0;Wrist;1;4743;9,84;0;0;0;-0,08135014183954131;0,015552232615238368;0,10049134949272515;2,2583697012237924;1,922666096987823;-0,21362956633198035
12:29:12.302;0;Mov;1;23991;10,27;0;-0,6161076693014313;0;-0,6161076693014313;-0,0957060457167272;0,4773339268547624;-0,27466658528397475;2,410962248603778;0,09155552842799158
12:29:12.304;0;Mov;1;23992;10,27;0;0;0;-0,35650503817674795;0,02990813928647725;0,19978636745334483;-0,9460737937559129;-2,075258644367809;-0,15259254737998595
12:29:12.304;0;Mov;1;23993;10,27;0;0;0;-0,2799401777607807;0,028711815205179753;0,2464430736812189;-1,3122959074678793;-5,371257667775506;-0,7629627368999298
12:29:12.304;0;Mov;1;23994;10,27;0;0;0;-0,4773339268547624;-0,12441786092190694;0,25362103307061984;-1,6479995117038484;-9,063997314371166;-1,0376293221839046
12:29:12.304;0;Mov;1;23995;10,27;0;0;0;-0,2009826989854503;0,0011963255947428648;0,11604358490201651;-1,3428144169438765;-13,946958830530717;-1,1597033600878932
12:29:12.332;0;Mov;1;23996;10,12;0;0;0;-0,12561418500320445;-0,0023926511894857296;0,10527665326872311;-0,8239997558519242;-16,022217474898525;-1,6174810022278512
12:29:12.332;0;Mov;1;23997;10,12;0;0;0;0,040675070919770656;-0,08613544561553926;-0,07536851398224585;0;-17,029328287606432;-1,73955504013184
12:29:12.332;0;Mov;1;23998;10,12;0;0;0;-0,03230079117447623;-0,0358897671437727;0,0837427900021363;0,4272591326639607;-17,27347636341441;-1,2207403790398876
12:29:12.332;0;Mov;1;23999;10,12;0;0;0;-0,2464430736812189;-0,117239908983314;0,18782311173875393;1,4954069643238623;-18,18903164769433;-0,8239997558519242
12:29:12.332;0;Mov;1;24000;10,12;0;0;0;-0,13518479255520036;-0,038282419031771674;0,0119632557145909;3,173924985503708;-20,966216010010072;-0,8850367748039186
12:29:12.363;0;Mov;1;24001;9,98;0;0;0;0,1076693014313181;-0,003588976900647469;-0,06340525826765496;3,967406231879635;-22,705771050141912;-1,0681478316599018
12:29:12.363;0;Mov;1;24002;9,98;0;0;0;-0,004785302378971459;-0,03708609495047418;-0,003588976900647469;4,486220892971588;-22,461622974333935;-1,0681478316599018
12:29:12.363;0;Mov;1;24003;9,98;0;0;0;-0,12202521275931195;0,03230079117447623;0,03708609495047418;4,394665364543596;-23,010956144901883;-0,8239997558519242
12:29:12.363;0;Mov;1;24004;9,98;0;0;0;0,01794488357188635;0,07417218990094836;0,0119632557145909;3,9979247413556322;-23,83495590075381;-1,1902218695638904
12:29:12.363;0;Mov;1;24005;9,98;0;0;0;-0,003588976900647469;0,040675070919770656;0,019141209515885837;3,7842951750236518;-23,68236335337382;-1,4343699453718681
12:29:12.422;0;Mov;1;24006;10,05;0;0;0;-0,07895748622613834;0,07656483806354335;0,07895748622613834;3,8758507034516434;-23,438215277565845;-1,4648884548478653
12:29:12.423;0;Mov;1;24007;10,05;0;0;0;-0,08015381775824382;0,12322153684060945;0,052638326634361556;3,2654805139316996;-24,14014099551378;-1,586962492751854
12:29:12.423;0;Mov;1;24008;10,05;0;0;0;-0,028711815205179753;0,08015381775824382;-0,04904935066506508;2,4719992675557725;-24,597918637653738;-2,075258644367809
12:29:12.423;0;Mov;1;24009;10,05;0;0;0;0;0,009570604757942918;0,01674855762788686;1,8311105685598315;-24,506363109225745;-2,4719992675557725
12:29:12.423;0;Mov;1;24010;10,05;0;0;0;-0,1064729773500206;-0,03708609495047418;0,09809870133013016;1,403851435895871;-24,414807580797753;-2,1057771538438064
12:29:12.453;0;Mov;1;24011;9,93;0;0;0;0,02990813928647725;-0,07776116214484084;0,027515489261180266;2,1362956633198036;-25,055696279793693;-1,9531846064638203
12:29:12.453;0;Mov;1;24012;9,93;0;0;0;0,08135014183954131;0,009570604757942918;-0,0933133975541322;2,685628833887753;-24,506363109225745;-1,8311105685598315
12:29:12.453;0;Mov;1;24013;9,93;0;0;0;0,16987822816686757;-0,004785302378971459;-0,18303781541356395;2,7466658528397474;-22,370067445905942;-2,044740134891812
12:29:12.453;0;Mov;1;24014;9,93;0;0;0;0,21414228623214668;0,010766930701942408;-0,1674855800042726;2,1057771538438064;-20,020142216254158;-1,9837031159398175
12:29:12.453;0;Mov;1;24015;9,93;0;0;0;0,28113650929288614;-0,013159581658590389;-0,16030763551648763;1,8005920590838342;-17,761772515030366;-1,6785180211798456
12:29:12.512;0;Mov;1;24016;9,98;0;0;0;0,3337748284764397;-0,1531296761270867;-0,297885061332667;2,563554795983764;-14,984588152714622;-1,3428144169438765
12:29:12.513;0;Mov;1;24017;9,98;0;0;0;0,47254860072634053;-0,21174962316793572;-0,3864131774632252;3,2349620044557024;-11,780144657734915;-0,8239997558519242
12:29:12.513;0;Mov;1;24018;9,98;0;0;0;0,37684255500961333;-0,24165777735602892;-0,3014740559289834;5,035554063539537;-7,538071840571306;-0,030518509475997192
12:29:12.513;0;Mov;1;24019;9,98;0;0;0;0,44383679297196876;-0,2703695851104007;-0,3708609271523179;7,080294198431349;-3,814813684499649;0,7019257179479355
12:29:12.513;0;Mov;1;24020;9,98;0;0;0;0,31224098011146884;-0,12441786092190694;-0,32420423582605973;9,277626880703146;0,27466658528397475;1,6174810022278512
12:29:12.521;0;Wrist;1;4744;11,69;0;0;0;-0,0705832102062479;0,028711815205179753;0,09092074194072924;1,8616290780358287;0,8239997558519242;0,061037018951994385
12:29:12.521;0;Wrist;1;4745;11,69;0;0;0;-0,17825251908837397;0;0,1339884610230949;1,586962492751854;-0,061037018951994385;0,09155552842799158
12:29:12.521;0;Wrist;1;4746;11,69;0;0;0;-0,17585985602416304;0,01674855762788686;0,1411664204124958;1,3428144169438765;-1,4343699453718681;0,5493331705679495
12:29:12.521;0;Wrist;1;4747;11,69;0;0;0;-0,1339884610230949;0,04306772280776963;0,11484726082071901;0,21362956633198035;-3,326517532883694;0,8545182653279214
12:29:12.521;0;Wrist;1;4748;11,69;0;0;0;-0,20696432684274574;-0,03708609495047418;0,18423414694566942;-0,9155552842799157;-5,005035554063539;0,9765923032319102
12:29:12.550;0;Wrist;1;4749;11,48;0;0;0;-0,1961974026602603;-0,08972441785943175;0,1794488357188635;-0,9765923032319102;-6,561479537339396;1,586962492751854
12:29:12.550;0;Wrist;1;4750;11,48;0;0;0;-0,11484726082071901;0,010766930701942408;0,18064516725096896;-0,7019257179479355;-8,02636799218726;2,2278511917477952
12:29:12.550;0;Wrist;1;4751;11,48;0;0;0;-0,10886562551261558;0,03349711525577372;0,1794488357188635;-0,5798516800439466;-9,094515823847164;2,4414807580797753
12:29:12.551;0;Wrist;1;4752;11,48;0;0;0;-0,1866267951082644;-0,00598162785729545;0,2524247015385144;-0,4272591326639607;-10,071108127079073;2,533036286507767
12:29:12.551;0;Wrist;1;4753;11,48;0;0;0;-0,16270028367908262;-0,010766930701942408;0,236872466129223;0;-11,810663167210913;2,8992584002197335
12:29:12.553;0;Wrist;1;4754;11,1;0;0;0;-0,11484726082071901;0,0598162785729545;0,14714804826979125;0,6103701895199438;-13,794366283150731;3,7232581560716573
12:29:12.553;0;Wrist;1;4755;11,1;0;0;0;-0,11365092928861355;0,04187139500106815;0,12441786092190694;1,0376293221839046;-15,137180700094607;4,303109836115604
12:29:12.553;0;Wrist;1;4756;11,1;0;0;0;-0,08733176969683676;-0,020337535459885328;0,04187139500106815;1,7700735496078372;-16,2968840601825;4,760887478255562
12:29:12.553;0;Wrist;1;4757;11,1;0;0;0;0,00837427881394343;-0,02990813928647725;-0,10886562551261558;2,3194067201757864;-17,73125400555437;5,005035554063539
12:29:12.553;0;Wrist;1;4758;11,1;0;0;0;0,21414228623214668;-0,05383465071565905;-0,27635121296769616;2,71614734336375;-18,005920590838343;5,096591082491531
12:29:12.558;0;Wrist;1;4759;10,77;0;0;-0,5084383678701132;0,3660756308271279;-0,02990813928647725;-0,5084383678701132;3,2349620044557024;-16,785180211798455;4,547257911923582
12:29:12.559;0;Wrist;1;4760;10,77;0;0;0;0,3696645956202124;0,004785302378971459;-0,44862208929715874;2,8687398907437363;-14,55732902005066;3,4180730613116856
12:29:12.559;0;Wrist;1;4761;10,77;0;0;0;0,2476394052133244;0,01794488357188635;-0,35650503817674795;2,288888210699789;-11,505478072450941;2,5940733054597613
12:29:12.559;0;Wrist;1;4762;10,77;0;0;0;0,19260842296555986;-0,13039949623001038;-0,23806879766132846;1,9837031159398175;-9,33866389965514;1,8311105685598315
12:29:12.559;0;Wrist;1;4763;10,77;0;0;0;0,04187139500106815;-0,0705832102062479;-0,2153386028626362;2,197332682271798;-7,690664387951292;1,5259254737998595
12:29:12.588;0;Wrist;1;4764;10,62;0;0;0;0,119632557145909;-0,1292031646979049;-0,3624866660340434;2,1057771538438064;-7,324442274239326;1,73955504013184
12:29:12.590;0;Wrist;1;4765;10,62;0;0;0;0,3828241828669088;-0,03947874311306917;-0,39837643317781607;2,044740134891812;-6,530961027863399;1,8005920590838342
12:29:12.590;0;Wrist;1;4766;10,62;0;0;0;0,3134373116435743;-0,0023926511894857296;-0,3708609271523179;1,4648884548478653;-4,272591326639607;0,8850367748039186
12:29:12.590;0;Wrist;1;4767;10,62;0;0;0;0,33018586368335523;-0,009570604757942918;-0,3780388865417188;0,5493331705679495;-2,197332682271798;0,09155552842799158
12:29:12.590;0;Wrist;1;4768;10,62;0;0;0;0,37684255500961333;-0,00598162785729545;-0,46776330440115055;-0,640888698995941;-0,18311105685598317;-0,793481246375927
12:29:12.632;0;Mov;1;24021;10,39;0;0;0;0,1770561875562685;-0,0011963255947428648;-0,24046144582392345;10,742515335551012;3,173924985503708;2,288888210699789
12:29:12.632;0;Mov;1;24022;10,39;0;0;0;0,2596026609279153;0,0119632557145909;-0,2775475444998016;11,383404034546952;5,645924253059481;2,5025177770317697
12:29:12.632;0;Mov;1;24023;10,39;0;0;0;0,41632131674970246;-0,23567614949873347;-0,2596026609279153;12,146366771446882;8,6977752006592;3,051850947599719
12:29:12.632;0;Mov;1;24024;10,39;0;0,6412305420659505;0;0,6412305420659505;-0,3505234103194525;-0,4510147523613697;13,611255226294748;13,031403546250802;4,577776421399578
12:29:12.632;0;Mov;1;24025;10,39;0;0,8589617483863338;0;0,8589617483863338;-0,2715659166425062;-0,41632131674970246;14,435254982146672;19,440290536210213;7,080294198431349
12:29:12.634;0;Mov;1;24026;10,1;0;1,062337155140843;-0,5215979849200415;1,062337155140843;-0,3014740559289834;-0,5215979849200415;15,503402813806574;27,344584490493485;9,7964415417951
12:29:12.634;0;Mov;1;24027;10,1;0;1,4463576397366253;0;1,4463576397366253;-0,027515489261180266;-0,410339688892407;16,51051362651448;36,9579149754326;13,48918118839076
12:29:12.634;0;Mov;1;24028;10,1;0;1,3614185480056153;0;1,3614185480056153;-0,27276224817461164;0,47494126379055146;18,03643910031434;49,25687429425947;20,020142216254158
12:29:12.634;0;Mov;1;24029;10,1;-1,7992736833170568;0,6436231455236976;0,6531937977805414;0,6436231455236976;-1,7992736833170568;0,6531937977805414;28,199102755821407;63,99731437116611;27,95495468001343
12:29:12.634;0;Mov;1;24030;10,1;-1,0635334568697166;0;0,930741342280343;-0,1184362330646115;-1,0635334568697166;0,930741342280343;42,63435773796808;74,46516312143315;35,73717459639271
12:29:12.700;0;Wrist;1;4774;10,98;-0,5287759145062105;0;0;0,22012391408944212;-0,5287759145062105;-0,16030763551648763;-11,505478072450941;4,333628345591602;-4,699850459303567
12:29:12.700;0;Wrist;1;4775;10,98;0;0;0;0,4701559674653615;0,0598162785729545;-0,11365092928861355;-12,146366771446882;5,035554063539537;-3,5096285897396773
12:29:12.700;0;Wrist;1;4776;10,98;0,7764153197195349;0;0;0,3469344157231361;0,7764153197195349;0,06101260637965598;-8,728293710135198;10,498367259743034;-3,8758507034516434
12:29:12.700;0;Wrist;1;4777;10,98;0;0;0;0,17107455969897306;-0,119632557145909;0,05503097852236053;-5,188146610919523;15,808587908566546;-5,981627857295449
12:29:12.700;0;Wrist;1;4778;10,98;0;0;0;0;0,32779320061914424;0,06699423051154745;-9,430219428083133;16,937772759178443;-5,798516800439467
12:29:12.701;0;Wrist;1;4779;10,65;0;0;0;0,32061527103297527;0,21653493439474167;-0,0346934430624752;-13,214514603106783;18,616290780358288;-6,500442518387402
12:29:12.702;0;Wrist;1;4780;10,65;0;0;0;0,37564622347750787;0,08972441785943175;0,12681051653530992;-16,602069154942473;21,027253028962065;-7,324442274239326
12:29:12.702;0;Wrist;1;4781;10,65;0;0;0;0,11484726082071901;0,22012391408944212;0,29190343347537157;-17,517624439222388;26,39851069673757;-8,545182653279214
12:29:12.702;0;Wrist;1;4782;10,65;0;0;0;-0,13279214439260537;0,11006195704472106;0,19380473959604938;-20,813623462630087;27,558214056825463;-8,972441785943175
12:29:12.702;0;Wrist;1;4783;10,65;0;-0,5742362743003632;0,7465071804330576;-0,5742362743003632;0,25720999786370435;0,7465071804330576;-25,666066469313638;27,588732566301463;-8,362071596423231
12:29:12.702;0;Wrist;1;4784;10,35;0;0;0;-0,46058534501174964;0,2464430736812189;0,4199102815427869;-24,65895565660573;31,678212836085084;-8,209479049043244
12:29:12.703;0;Wrist;1;4785;10,35;0;0;0;-0,19380473959604938;0,11125828112601856;0,1674855800042726;-22,40058595538194;33,90606402783288;-8,850367748039186
12:29:12.703;0;Wrist;1;4786;10,35;0;0;0;0,014355907602589877;0,0945097216354297;0,08613544561553926;-19,531846064638202;35,09628589739677;-10,284737693411055
12:29:12.703;0;Wrist;1;4787;10,35;0;0;0;0,12681051653530992;-0,019141209515885837;-0,29309976500747703;-16,20532853175451;32,80739768669698;-11,749626148258919
12:29:12.703;0;Wrist;1;4788;10,35;0;0;0;-0,3660756308271279;0,02273018548518231;0,4510147523613697;-15,015106662190618;28,443250831629385;-11,719107638782923
12:29:12.723;0;Mov;1;24031;10,32;1,953599705877865;-0,820679377784814;1,7274941490295115;-0,820679377784814;1,953599705877865;1,7274941490295115;46,66280098879971;83,04086428418836;47,39524521622364
12:29:12.723;0;Mov;1;24032;10,32;-1,3075838972899563;-0,8422132261497849;3,1212135589922787;-0,8422132261497849;-1,3075838972899563;3,1212135589922787;45,503097628711814;91,61656544694357;56,550798059022796
12:29:12.723;0;Mov;1;24033;10,32;-5,555735858485671;0;2,922623418759728;-0,09092074194072924;-5,555735858485671;2,922623418759728;61,861018707846306;94,5158238471633;61,58635212256233
12:29:12.723;0;Mov;1;24034;10,32;-6,141935388500626;0,881691958086642;4,266097083193457;0,881691958086642;-6,141935388500626;4,266097083193457;93,66130558183538;100,10071108127079;76,54042176580096
12:29:12.723;0;Mov;1;24035;10,32;-7,896945192571795;1,555223242896817;5,968468180639057;1,555223242896817;-7,896945192571795;5,968468180639057;144,5966978972747;114,71907712027344;92,77626880703147
12:29:12.730;0;Wrist;1;4789;10,21;0;-0,6316598898091067;-0,7812005862414929;-0,6316598898091067;-0,21174962316793572;-0,7812005862414929;-10,65095980712302;34,272286141544846;-10,284737693411055
12:29:12.730;0;Wrist;1;4790;10,21;0;0;-0,6651570534951323;-0,236872466129223;-0,08015381775824382;-0,6651570534951323;-19,47080904568621;20,11169774468215;-7,354960783715323
12:29:12.730;0;Wrist;1;4791;10,21;0;0;0;-0,10288399765532014;-0,4019653979709006;-0,15791497245227668;-22,858363597521898;9,155552842799157;-5,4322946867275
12:29:12.731;0;Wrist;1;4792;10,21;0;0;0;-0,29549242807168796;-0,412732322153386;-0,04426404688906713;-20,75258644367809;8,941923276467177;-1,281777397991882
12:29:12.731;0;Wrist;1;4793;10,21;0;0;0;-0,20337534714804528;-0,19021577480296487;-0,29190343347537157;-19,623401593066195;8,728293710135198;2,685628833887753
12:29:12.757;0;Mov;1;24036;10,23;-8,026148640400402;1,9524034041489913;6,226874599444563;1,9524034041489913;-8,026148640400402;6,226874599444563;194,15875728629413;134,43403424176762;110,44648579363384
12:29:12.757;0;Mov;1;24037;10,23;-6,372826509903256;3,2145267628254035;7,783294263283182;3,2145267628254035;-6,372826509903256;7,783294263283182;221,6864528336436;160,8325449385052;130,49714651936398
12:29:12.757;0;Mov;1;24038;10,23;-13,732621616260262;8,60516964476455;11,061226805932797;8,60516964476455;-13,732621616260262;11,061226805932797;231,94067201757866;169,4387646107364;123,23374126407666
12:29:12.758;0;Mov;1;24039;10,23;-22,264814828943756;10,46067117831965;14,585601557969909;10,46067117831965;-22,264814828943756;14,585601557969909;140,1715140232551;170,4763939329203;59,358500930814536
12:29:12.758;0;Mov;1;24040;10,23;-25,03430852687155;13,786456266975922;9,440205656605732;13,786456266975922;-25,03430852687155;9,440205656605732;54,62813196203498;155,98010193182165;2,533036286507767
12:29:12.759;0;Mov;1;24041;9,97;-19,38406399731437;15,577355838190863;4,386926061281167;15,577355838190863;-19,38406399731437;4,386926061281167;39,76561784722434;143,95580919827876;-41,44413586840419
12:29:12.759;0;Mov;1;24042;9,97;-14,025721381267738;16,554754020813622;7,020038739432966;16,554754020813622;-14,025721381267738;7,020038739432966;10,803552354503006;137,11966307565538;-68,81923886837367
12:29:12.760;0;Mov;1;24043;9,97;-11,484725486007264;18,09920995208594;9,846956350901822;18,09920995208594;-11,484725486007264;9,846956350901822;-27,92443617053743;119,23581652272102;-78,85982848597675
12:29:12.760;0;Mov;1;24044;9,97;-8,582440031128879;19,235719244972074;10,47143753624073;19,235719244972074;-8,582440031128879;10,47143753624073;-53,895687734611045;93,87493514816737;-75,83849604785303
12:29:12.760;0;Mov;1;24045;9,97;-6,748472643971068;19,597008804589983;11,517026467177343;19,597008804589983;-6,748472643971068;11,517026467177343;-69,88738670003357;66,49983214819788;-64,72975859859004
12:29:12.761;0;Wrist;1;4794;10,1;0;0;-0,5096347292054506;0;-0,20337534714804528;-0,5096347292054506;-19,440290536210213;4,394665364543596;4,791405987731559
12:29:12.761;0;Wrist;1;4795;10,1;0;0;0;-0,2799401777607807;-0,05383465071565905;-0,05024567474636257;-19,440290536210213;0,7019257179479355;5,76799829096347
12:29:12.761;0;Wrist;1;4796;10,1;0;0;0;0,16030763551648763;-0,19739371929074984;-0,34573808419103064;-18,15851313821833;0,5493331705679495;6,103701895199438
12:29:12.761;0;Wrist;1;4797;10,1;0;0;0;0,11006195704472106;-0,13997008888039034;-0,3947874385814997;-17,822809533982362;-0,5493331705679495;6,134220404675435
12:29:12.761;0;Wrist;1;4798;10,1;0;0;0;-0,23089083827192755;0,04187139500106815;-0,48929718256935334;-18,860438856166265;-2,71614734336375;5,951109347819452
12:29:12.815;0;Mov;1;24046;10;-5,810553491317484;19,72382084109012;12,178594317453536;19,72382084109012;-5,810553491317484;12,178594317453536;-77,02871791741691;34,363841669972835;-50,355540635395364
12:29:12.815;0;Mov;1;24047;10;-5,662209215826899;19,674769966734825;11,861568041016877;19,674769966734825;-5,662209215826899;11,861568041016877;-79,25656910916472;0,7324442274239327;-37,56828516495254
12:29:12.815;0;Mov;1;24048;10;-5,9361676763206885;19,28118037965026;11,4368724631489;19,28118037965026;-5,9361676763206885;11,4368724631489;-80,4773094882046;-31,73924985503708;-30,274361400189214
12:29:12.815;0;Mov;1;24049;10;-5,972057443464461;18,54065446943571;10,703525078585162;18,54065446943571;-5,972057443464461;10,703525078585162;-84,8109378337962;-62,56294442579424;-31,037324137089144
12:29:12.816;0;Mov;1;24050;10;-5,786626979888302;17,390985976744897;9,8768644901883;17,390985976744897;-5,786626979888302;9,8768644901883;-92,59315775017548;-91,1893063142796;-37,93450727866451
12:29:12.879;0;Wrist;1;4799;10,47;0;0;0;-0,38760947919209876;0,29190343347537157;-0,4857081879730369;-20,56947538682211;-6,317331461531419;4,0284432508316295
12:29:12.880;0;Wrist;1;4800;10,47;0;0;0;-0,12441786092190694;0,3433454509300516;-0,37205725868442335;-24,201178014465775;-10,711996826075014;0,36622211371196634
12:29:12.880;0;Wrist;1;4801;10,47;0;0;0;-0,4258919094000824;0,34454178246215705;-0,03349711525577372;-27,1919919431135;-13,061922055726798;-3,448591570787683
12:29:12.880;0;Wrist;1;4802;10,47;0;-0,6998504593035676;0;-0,6998504593035676;0,06579790643024995;0,3469344157231361;-29,267250587481307;-16,20532853175451;-6,2868129520554215
12:29:12.880;0;Wrist;1;4803;10,47;0;0;0,6926725297173986;-0,2799401777607807;-0,290707131746498;0,6926725297173986;-27,741325113681448;-19,837031159398176;-6,8666646320993685
12:29:12.881;0;Wrist;1;4804;10,2;0;0;0,9666311094241157;0,06699423051154745;-0,4007690664387951;0,9666311094241157;-22,8278450880459;-19,531846064638202;-4,547257911923582
12:29:12.881;0;Wrist;1;4805;10,2;0;0,5048494030770287;1,050373899426252;0,5048494030770287;-0,4199102815427869;1,050373899426252;-16,144291512802514;-16,08325449385052;-1,4954069643238623
12:29:12.881;0;Wrist;1;4806;10,2;0;0,764452064004944;1,137705594615009;0,764452064004944;-0,17346720786156805;1,137705594615009;-9,216589861751151;-10,864589373455;0,793481246375927
12:29:12.881;0;Wrist;1;4807;10,2;0;1,118564409314249;1,1592395025864437;1,118564409314249;-0,12441786092190694;1,1592395025864437;-3,7537766655476545;-5,584887234107486;1,4343699453718681
12:29:12.881;0;Wrist;1;4808;10,2;0;1,0635334568697166;1,2346080612735375;1,0635334568697166;-0,0478530228583636;1,2346080612735375;1,403851435895871;1,1597033600878932;0,45777764213995786
12:29:12.909;0;Wrist;1;4809;10,08;0;0,8505875170712912;1,2393932681890316;0,8505875170712912;-0,08852809377813425;1,2393932681890316;6,0121463667714465;14,282662434766687;-1,3733329264198737
12:29:12.909;0;Wrist;1;4810;10,08;0;0,7225806690038759;1,1066011535996583;0,7225806690038759;-0,06579790643024995;1,1066011535996583;9,063997314371166;27,1614734336375;-4,974517044587542
12:29:12.910;0;Wrist;1;4811;10,08;0;1,577953452597125;1,2178594794305246;1,577953452597125;-0,4773339268547624;1,2178594794305246;13,428144169438765;38,880581072420426;-10,834070863979003
12:29:12.910;0;Wrist;1;4812;10,08;-0,7429182156399732;3,4513992736594745;0,8792992950224311;3,4513992736594745;-0,7429182156399732;0,8792992950224311;18,70784630878628;51,66783654286325;-17,578661458174384
12:29:12.910;0;Wrist;1;4813;10,08;-1,0144841322824794;5,145396378215888;1,4846400103381452;5,145396378215888;-1,0144841322824794;1,4846400103381452;25,75762199774163;71,99316385387738;-31,556138798181095
12:29:12.934;0;Mov;1;24051;10,34;-5,339201311532944;15,790301599169897;9,490450567644276;15,790301599169897;-5,339201311532944;9,490450567644276;-100,68056276131473;-117,52677999206519;-48,890652180547505
12:29:12.934;0;Mov;1;24052;10,34;-4,299594008453627;13,84029091769158;9,101644756920072;13,84029091769158;-4,299594008453627;9,101644756920072;-108,37122714926603;-142,5824762718589;-62,990203558458205
12:29:12.934;0;Mov;1;24053;10,34;-3,2145267628254035;11,793377292703024;8,91262550737022;11,793377292703024;-3,2145267628254035;8,91262550737022;-114,74959562974944;-167,02780236213263;-78,40205084383679
12:29:12.934;0;Mov;1;24054;10,34;-1,9009613568910795;9,4629352702414;8,946122432630391;9,4629352702414;-1,9009613568910795;8,946122432630391;-117,13003936887722;-187,87194433423872;-93,35612048707542
12:29:12.935;0;Mov;1;24055;10,34;-0,7907712384983367;6,985344916379284;8,5609063615833;6,985344916379284;-0,7907712384983367;8,5609063615833;-116,58070619830927;-205,5726798303171;-106,81478316599018
12:29:12.935;0;Mov;1;24056;10,1;-0,7967528663556321;4,432386242255928;7,908908448286386;4,432386242255928;-0,7967528663556321;7,908908448286386;-112,85744804223762;-220,34363841669972;-119,47996459852901
12:29:12.936;0;Mov;1;24057;10,1;-1,247767618717002;1,7478316360591448;7,113351943266091;1,7478316360591448;-1,247767618717002;7,113351943266091;-103,3051545762505;-231,11667226172673;-135,47166356395152
12:29:12.936;0;Mov;1;24058;10,1;-0,9510788293099764;-1,0754967125843073;6,127579767754143;-1,0754967125843073;-0,9510788293099764;6,127579767754143;-93,72234260078737;-239,38718832972197;-156,83462019714958
12:29:12.936;0;Mov;1;24059;10,1;0;-4,04956205938902;5,320060007019257;-4,04956205938902;0,41632131674970246;5,320060007019257;-87,008270516068;-244,88052003540147;-179,96765037995544
12:29:12.936;0;Mov;1;24060;10,1;2,2622517509994813;-7,315530869472335;5,121469866786706;-7,315530869472335;2,2622517509994813;5,121469866786706;-80,99612414929655;-247,53563035981324;-196,11194189275795
12:29:12.962;0;Mov;1;24061;9,98;3,9502672276985993;-11,289724608600116;5,013800565355388;-11,289724608600116;3,9502672276985993;5,013800565355388;-73,76323740348522;-247,56614886928924;-200,93386638996552
12:29:12.962;0;Mov;1;24062;9,98;4,787695127719962;-15,434992713705862;3,604528994491409;-15,434992713705862;4,787695127719962;3,604528994491409;-64,24146244697408;-245,27726065858943;-194,3418683431501
12:29:12.962;0;Mov;1;24063;9,98;4,508950983458968;-19,794402523880734;2,6725914696951203;-19,794402523880734;4,508950983458968;2,6725914696951203;-52,858058412427134;-239,082003234962;-178,1975768303476
12:29:12.962;0;Mov;1;24064;9,98;4,206280804620502;-24,280623416852322;1,477462080751976;-24,280623416852322;4,206280804620502;1,477462080751976;-43,305764946440014;-230,5368205816828;-158,23847163304544
12:29:12.962;0;Mov;1;24065;9,98;5,067635216071047;-27,90190206610309;-2,6390943060090946;-27,90190206610309;5,067635216071047;-2,6390943060090946;-39,79613635670034;-217,2917874691;-137,66899624622334
12:29:13.022;0;Mov;1;24066;10,03;6,970989295632801;-30,506302072206793;-7,5607776116214485;-30,506302072206793;6,970989295632801;-7,5607776116214485;-43,488876003296;-193,06009094515824;-112,52174443800165
12:29:13.022;0;Mov;1;24067;10,03;8,936552018799402;-32,476649525437175;-9,884042062135686;-32,476649525437175;8,936552018799402;-9,884042062135686;-52,766502883999145;-158,8183233130894;-82,5830866420484
12:29:13.022;0;Mov;1;24068;10,03;9,872078806421094;-34,0258911404767;-9,915146145512253;-34,0258911404767;9,872078806421094;-9,915146145512253;-60,579241309854424;-120,6091494491409;-52,2171697134312
12:29:13.022;0;Mov;1;24069;10,03;10,356590662862025;-34,781971953489794;-9,807476844080934;-34,781971953489794;10,356590662862025;-9,807476844080934;-57,40531632435072;-82,91879024628437;-25,269325846125675
12:29:13.022;0;Mov;1;24070;10,03;10,818371951963867;-34,36684392834254;-10,171160199285866;-34,36684392834254;10,818371951963867;-10,171160199285866;-43,36680196539201;-46,29657887508774;-2,5940733054597613
12:29:13.031;0;Wrist;1;4814;10,44;-0,5012604382839442;3,567442806405835;2,7108738402966397;3,567442806405835;-0,5012604382839442;2,7108738402966397;32,95999023407697;113,34574419385358;-43,36680196539201
12:29:13.031;0;Wrist;1;4815;10,44;-0,7788079827837459;5,200427449873348;3,828241828669088;5,200427449873348;-0,7788079827837459;3,828241828669088;41,779839472640155;176,21387371440778;-45,564134647663806
12:29:13.031;0;Wrist;1;4816;10,44;-0,6878872035889767;5,853621307260354;6,3895749725333415;5,853621307260354;-0,6878872035889767;6,3895749725333415;79,50071718497269;249,85503707998902;-73,00027466658528
12:29:13.031;0;Wrist;1;4817;10,44;0;4,6656697286904505;9,232044625690481;4,6656697286904505;0,06101260637965598;9,232044625690481;142,5824762718589;342,69234290597245;-116,94692831202124
12:29:13.031;0;Wrist;1;4818;10,44;2,2239693803979614;4,3665883358256785;7,548814355906858;4,3665883358256785;2,2239693803979614;7,548814355906858;181,4630573442793;469,4967497787408;-149,84588152714622
12:29:13.032;0;Wrist;1;4819;10,19;0,6161076693014313;7,58350817896054;6,799914452803125;7,58350817896054;0,6161076693014313;6,799914452803125;188,66542558061465;572,2830896938993;-167,2414319284646
12:29:13.032;0;Wrist;1;4820;10,19;0;5,609570509201331;6,040247714926603;5,609570509201331;0,04306772280776963;6,040247714926603;181,79876094851528;647,8164006469924;-169,7134311960204
12:29:13.032;0;Wrist;1;4821;10,19;-1,1125827814569536;5,958897766808069;3,6631488521225624;5,958897766808069;-1,1125827814569536;3,6631488521225624;189,67253639332256;691,2747581408124;-178,2280953398236
12:29:13.032;0;Wrist;1;4822;10,19;0;3,8449905297250284;4,207477225562304;3,8449905297250284;-0,00837427881394343;4,207477225562304;184,789574877163;682,5464644306772;-187,47520371105074
12:29:13.032;0;Wrist;1;4823;10,19;8,618329798272653;5,072420422986541;9,309805787835321;5,072420422986541;8,618329798272653;9,309805787835321;187,0174260689108;670,0949125644704;-212,25623340556047
12:29:13.053;0;Mov;1;24071;9,94;10,112539864803002;-32,75778603473007;-10,617389446699423;-32,75778603473007;10,112539864803002;-10,617389446699423;-22,91940061647389;-11,047700430310984;17,456587420270395
12:29:13.053;0;Mov;1;24072;9,94;6,825037385174108;-32,70275734733116;-12,444178785058138;-32,70275734733116;6,825037385174108;-12,444178785058138;-0,27466658528397475;22,980437635425886;36,34754478591265
12:29:13.053;0;Mov;1;24073;9,94;3,632044530320139;-38,97987685781426;-32,65370647297586;-38,97987685781426;3,632044530320139;-32,65370647297586;37,141026032288586;122,56233405560472;73,21390423291726
12:29:13.053;0;Mov;1;24074;9,94;9,656740203558458;-28,982182912686543;-4,709933965575122;-28,982182912686543;9,656740203558458;-4,709933965575122;179,11313211462752;171,7886898403882;109,46989349040193
12:29:13.053;0;Mov;1;24075;9,94;-4,553215220343638;0;29,70117610705893;-0,13638112408730582;-4,553215220343638;29,70117610705893;172,8568376720481;102,87789544358654;51,91198461867123
12:29:13.060;0;Wrist;1;4824;10,08;0,6256782619518113;-10,028797074800867;18,654305398724325;-10,028797074800867;0,6256782619518113;18,654305398724325;153,87432477797785;638,1725516525773;-275,2464369640187
12:29:13.060;0;Wrist;1;4825;10,08;7,514121009704886;2,469216122547075;35,505748924222544;2,469216122547075;7,514121009704886;35,505748924222544;23,163548692281868;219,09237952818384;-247,44407483138522
12:29:13.060;0;Wrist;1;4826;10,08;6,882461298715171;23,638197347941528;28,179448835718862;23,638197347941528;6,882461298715171;28,179448835718862;-15,717032380138553;14,435254982146672;-190,1913510544145
12:29:13.061;0;Wrist;1;4827;10,08;10,467848750267036;16,963896603289896;18,48083819086276;16,963896603289896;10,467848750267036;18,48083819086276;7,4159978026673175;33,295693838312935;-189,76409192175055
12:29:13.061;0;Wrist;1;4828;10,08;12,34847273934141;18,50356875820185;16,911257896664328;18,50356875820185;12,34847273934141;16,911257896664328;0,793481246375927;-22,003845332193976;-169,5913571581164
12:29:13.182;0;Wrist;1;4829;10,41;14,517410809656056;17,87190809350871;18,31574449903867;17,87190809350871;14,517410809656056;18,31574449903867;-0,9460737937559129;-63,661610766930146;-140,44618060853907
12:29:13.182;0;Wrist;1;4830;10,41;17,818073442793054;17,61828783532212;17,987950910977506;17,61828783532212;17,818073442793054;17,987950910977506;-3,051850947599719;-88,38160344248787;-102,87789544358654
12:29:13.182;0;Wrist;1;4831;10,41;21,142662587359233;17,146935178685872;17,739116336558123;17,146935178685872;21,142662587359233;17,739116336558123;-23,957029938657797;-98,30011902218696;-57,86309396649067
12:29:13.182;0;Wrist;1;4832;10,41;21,82935384685812;15,567785424359874;18,643538087099827;15,567785424359874;21,82935384685812;18,643538087099827;-58,93124179815058;-113,0710776085696;-8,331553086947233
12:29:13.182;0;Wrist;1;4833;10,41;20,159281823175757;12,829395809808648;20,15330019531846;12,829395809808648;20,159281823175757;20,15330019531846;-81,39286477248451;-141,575365459151;39,582506790368356
12:29:13.185;0;Wrist;1;4834;10,19;17,382610553300577;10,442726294747764;20,890238273262735;10,442726294747764;17,382610553300577;20,890238273262735;-74,49568163090915;-181,82927945799128;80,26367992187262
12:29:13.185;0;Wrist;1;4835;10,19;14,867934965056307;9,301431318094425;19,79799226355785;9,301431318094425;14,867934965056307;19,79799226355785;-55,177465132602926;-224,61622974333935;109,50041199987793
12:29:13.185;0;Wrist;1;4836;10,19;12,715744880520035;8,138602671895505;14,945696127201147;8,138602671895505;12,715744880520035;14,945696127201147;-41,96295052949614;-255,89770195623646;130,00885036774804
12:29:13.185;0;Wrist;1;4837;10,19;11,387823496200445;6,169451162755211;8,954496902371288;6,169451162755211;11,387823496200445;8,954496902371288;-35,9202856532487;-267,3116245002594;146,24469740897854
12:29:13.185;0;Wrist;1;4838;10,19;11,25144199957274;3,632044530320139;5,978039071321756;3,632044530320139;11,25144199957274;5,978039071321756;-37,59880367442854;-260,475478377636;162,45002594073304
12:29:13.277;0;Wrist;1;4839;10,37;9,433027130954924;1,2860499893185218;5,883529446546831;1,2860499893185218;9,433027130954924;5,883529446546831;-42,451246681112096;-248,48170415356913;179,14365062410351
12:29:13.277;0;Wrist;1;4840;10,37;5,2219611194189275;0;3,8988251804406873;0,11125828112601856;5,2219611194189275;3,8988251804406873;-41,07791375469222;-238,990447706534;196,53920102542193
12:29:13.277;0;Wrist;1;4841;10,37;0;0;2,4010253742332224;-0,3923948053205206;0,1961974026602603;2,4010253742332224;-28,839991454817348;-229,3160802026429;197,24112674336985
12:29:13.277;0;Wrist;1;4842;10,37;-1,5683828003402813;-0,8422132261497849;4,465883644367809;-0,8422132261497849;-1,5683828003402813;4,465883644367809;-12,115848261970886;-219,4280831324198;180,48646504104738
12:29:13.277;0;Wrist;1;4843;10,37;0;-2,057679982909635;7,276052316354869;-2,057679982909635;-0,3816278513348033;7,276052316354869;-6,622516556291391;-216,1931211279641;161,22928556169316
12:29:13.279;0;Wrist;1;4844;10,15;0;-3,386797788171026;8,185259750663777;-3,386797788171026;0,0478530228583636;8,185259750663777;-19,47080904568621;-224,31104464857935;144,04736472670675
12:29:13.279;0;Wrist;1;4845;10,15;-1,728690450758385;-4,45631275368511;6,071352275154881;-4,45631275368511;-1,728690450758385;6,071352275154881;-32,71584215826899;-239,60081789605397;127,2621845149083
12:29:13.279;0;Wrist;1;4846;10,15;-2,859218115787225;-4,419226565599536;3,084127370906705;-4,419226565599536;-2,859218115787225;3,084127370906705;-34,08917508468886;-252,0218512527848;107,48619037446211
12:29:13.279;0;Wrist;1;4847;10,15;-1,4535355693227943;-4,211066011535997;2,378295283745842;-4,211066011535997;-1,4535355693227943;2,378295283745842;-33,87554551835689;-255,5925168614765;84,23108615375224
12:29:13.279;0;Wrist;1;4848;10,15;1,162828526985992;-4,013672292245246;3,3688529045991396;-4,013672292245246;1,162828526985992;3,3688529045991396;-42,20709860530412;-258,79696035645617;66,95760979033784
12:29:13.330;0;Wrist;1;4849;10,16;3,657167224265267;-4,211066011535997;3,591369317835017;-4,211066011535997;3,657167224265267;3,591369317835017;-51,21005890072329;-265,3889584032716;60,39613025299845
12:29:13.330;0;Wrist;1;4850;10,16;7,182738635670034;-5,0126041444135865;2,2526810987426376;-5,0126041444135865;7,182738635670034;2,2526810987426376;-56,00146488845485;-272,5913266396069;64,69924008911404
12:29:13.330;0;Wrist;1;4851;10,16;9,757231933042391;-5,887118232520524;0;-5,887118232520524;9,757231933042391;-0,37923521807382427;-57,13064973906675;-276,2230292672506;82,24738303781243
12:29:13.330;0;Wrist;1;4852;10,16;11,406964323862423;-6,534330462050233;-1,7789361962874233;-6,534330462050233;11,406964323862423;-1,7789361962874233;-51,30161442915128;-272,4997711111789;108,52381969664602
12:29:13.331;0;Wrist;1;4853;10,16;12,177398373363445;-7,020038739432966;-0,5658619833788567;-7,020038739432966;12,177398373363445;-0,5658619833788567;-36,65272988067263;-265,72466200750756;139,0728476821192
12:29:13.359;0;Wrist;1;4854;10,07;11,312455175939206;-7,655287713248085;2,371117234946745;-7,655287713248085;11,312455175939206;2,371117234946745;-13,153477584154789;-264,9616992706076;169,4387646107364
12:29:13.360;0;Wrist;1;4855;10,07;8,773852122562333;-8,776244964445937;4,048365638447218;-8,776244964445937;8,773852122562333;4,048365638447218;19,104586931974243;-274,17828913235877;195,13534958952604
12:29:13.360;0;Wrist;1;4856;10,07;4,876223124637593;-10,080239837336345;3,5291604358043154;-10,080239837336345;4,876223124637593;3,5291604358043154;48,8601336710715;-287,1791741691336;210,11993774224067
12:29:13.360;0;Wrist;1;4857;10,07;0,8852809228797266;-11,34834494308298;3,0494340247047336;-11,34834494308298;0,8852809228797266;3,0494340247047336;67,99523911252174;-293,557542649617;207,52586443678092
12:29:13.360;0;Wrist;1;4858;10,07;-1,250160222174749;-12,47887260811182;4,034010017700735;-12,47887260811182;-1,250160222174749;4,034010017700735;78,00531022064882;-290,8719138157292;190,31342509231848
12:29:13.389;0;Mov;1;24076;11,21;5,373894657734916;12,386755348368785;3,660756248664815;12,386755348368785;5,373894657734916;3,660756248664815;70,34516434217353;134,7392193365276;-23,04147465437788
12:29:13.389;0;Mov;1;24077;11,21;12,832984595782342;4,694381447035127;-1,9248878683202613;4,694381447035127;12,832984595782342;-1,9248878683202613;94,66841639454329;215,39963988158817;7,873775444807276
12:29:13.389;0;Mov;1;24078;11,21;3,9406965754417556;-4,824781315805536;8,858790856654561;-4,824781315805536;3,9406965754417556;8,858790856654561;101,0773033845027;245,88763084810938;50,172429578539386
12:29:13.389;0;Mov;1;24079;11,21;1,269301407475509;-1,2752830353328044;-7,68280301065096;-1,2752830353328044;1,269301407475509;-7,68280301065096;85,8485671559801;239,41770683919796;41,383098849452196
12:29:13.389;0;Mov;1;24080;11,21;0;5,023370979186376;4,78530228583636;5,023370979186376;0,0837427900021363;4,78530228583636;87,92382580034791;254,40229499191258;31,464583269753106
12:29:13.390;0;Mov;1;24081;10,98;4,535270336771752;-11,215552232428967;29,081478698080385;-11,215552232428967;4,535270336771752;29,081478698080385;142,88766136661886;311,47190771202736;19,714957121494187
12:29:13.390;0;Mov;1;24082;10,98;2,410596026490066;-13,560350352488785;8,931767288735617;-13,560350352488785;2,410596026490066;8,931767288735617;73,15286721396527;282,509842219306;22,339548936429946
12:29:13.390;0;Mov;1;24083;10,98;-6,77239915540025;-7,341850222785119;0,588592193079165;-7,341850222785119;-6,77239915540025;0,588592193079165;33,082064271980954;187,9329813531907;16,479995117038484
12:29:13.390;0;Mov;1;24084;10,98;2,3507797479171115;-5,789019344920194;5,225550382244331;-5,789019344920194;2,3507797479171115;5,225550382244331;22,73628955961791;105,89922788171026;22,644734031189916
12:29:13.390;0;Mov;1;24085;10,98;0;-1,0910489926984466;0;-1,0910489926984466;-0,09809870133013016;0,4976714436876278;10,559404278695029;59,23642689291055;19,257179479354228
12:29:13.392;0;Mov;1;24086;10,75;0,537150205427717;-1,5444562889110995;0,9929502243110446;-1,5444562889110995;0,537150205427717;0,9929502243110446;10,803552354503006;49,77568895535142;18,646809289834284
12:29:13.392;0;Mov;1;24087;10,75;0;-1,7346720786156804;1,4451613380077517;-1,7346720786156804;-0,009570604757942918;1,4451613380077517;6,164738914151433;40,68117313150426;14,862514114810633
12:29:13.392;0;Mov;1;24088;10,75;0,8781029932935576;-0,6675496569528794;0,783593249305704;-0,6675496569528794;0,8781029932935576;0,783593249305704;4,760887478255562;30,091250343333233;12,329477828302865
12:29:13.392;0;Mov;1;24089;10,75;0;0;0,5945738209364605;-0,3828241828669088;0,1411664204124958;0,5945738209364605;0,45777764213995786;25,666066469313638;8,880886257515183
12:29:13.392;0;Mov;1;24090;10,75;0;0;0,5443281350138859;-0,410339688892407;-0,13757744071779535;0,5443281350138859;-0,8850367748039186;23,83495590075381;7,9958494827112645
12:29:13.393;0;Mov;1;24091;10,53;0;-0,6854945405247658;0,6125187045083468;-0,6854945405247658;0,14475540010719626;0,6125187045083468;-0,9155552842799157;22,61421552171392;7,4159978026673175
12:29:13.393;0;Mov;1;24092;10,53;0;0;0,5491134611423079;-0,3349711600085452;0,15552232428968168;0,5491134611423079;-0,6714072084719382;20,23377178258614;4,089480269783624
12:29:13.393;0;Mov;1;24093;10,53;0;0;0;-0,1315958128604999;-0,48211922317995237;0,45938904328287605;-1,8616290780358287;19,257179479354228;2,075258644367809
12:29:13.393;0;Mov;1;24094;10,53;-0,8039307959418012;0;0,5239905883777887;-0,2990813928647725;-0,8039307959418012;0,5239905883777887;-0,5493331705679495;20,23377178258614;3,1128879665517135
12:29:13.393;0;Mov;1;24095;10,53;-0,6555864012382885;-0,6436231455236976;0,6496047733809931;-0,6436231455236976;-0,6555864012382885;0,6496047733809931;2,6245918149357585;20,050660725730154;4,791405987731559
12:29:13.394;0;Mov;1;24096;10,32;-0,515616357062746;-0,5096347292054506;0,6747276461455123;-0,5096347292054506;-0,515616357062746;0,6747276461455123;5,523850215155492;18,127994628742332;5,249183629871517
12:29:13.394;0;Mov;1;24097;10,32;-0,5670583447141941;0;0,6699423200170904;-0,21653493439474167;-0,5670583447141941;0,6699423200170904;9,979552598651082;17,365031891842403;5,523850215155492
12:29:13.394;0;Mov;1;24098;10,32;-0,5778252390934476;0;0,6699423200170904;-0,0598162785729545;-0,5778252390934476;0,6699423200170904;15,839106418042542;18,982512894070254;6,74459059419538
12:29:13.394;0;Mov;1;24099;10,32;-0,5897884948080385;0;0,9331339457380902;-0,36487929929502244;-0,5897884948080385;0,9331339457380902;21,97332682271798;21,08829004791406;7,873775444807276
12:29:13.394;0;Mov;1;24100;10,32;-0,9116000973731193;0;0,8326426334994049;0,17466353939367352;-0,9116000973731193;0,8326426334994049;27,31406598101749;23,194067201757868;10,132145146031068
12:29:13.397;0;Mov;1;24101;10,13;0,7201880059396649;0;0;-0,03349711525577372;0,7201880059396649;0,4964751121555223;31,28147221289712;22,431104464857935;10,803552354503006
12:29:13.397;0;Mov;1;24102;10,13;0,727365935525834;0;1,3721855019913327;-0,02990813928647725;0,727365935525834;1,3721855019913327;28,962065492721337;22,186956389049957;6,591998046815394
12:29:13.397;0;Mov;1;24103;10,13;0,9486862258522294;0;1,4834437086092715;-0,06699423051154745;0,9486862258522294;1,4834437086092715;21,698660237434005;29,3588061159093;3,47911008026368
12:29:13.397;0;Mov;1;24104;10,13;0,7249733320680868;3,3150182538834803;2,142619193853572;3,3150182538834803;0,7249733320680868;2,142619193853572;11,352885525070956;40,77272865993225;1,5259254737998595
12:29:13.397;0;Mov;1;24105;10,13;0;3,151121698278756;2,3735100768303474;3,151121698278756;0,16628926337378308;2,3735100768303474;3,845332193975646;92,34900967436751;10,284737693411055
12:29:13.423;0;Mov;1;24106;9,93;0;2,5984190935239724;2,6163639770958587;2,5984190935239724;0,07895748622613834;2,6163639770958587;-3,357036042359691;145,08499404889065;17,761772515030366
12:29:13.423;0;Mov;1;24107;9,93;-0,8900662490081485;3,856953785439619;1,2788720597323526;3,856953785439619;-0,8900662490081485;1,2788720597323526;-8,514664143803216;173,37565233314004;25,29984435560167
12:29:13.423;0;Mov;1;24108;9,93;-0,8769066319582202;2,9321940710165717;2,379491704687643;2,9321940710165717;-0,8769066319582202;2,379491704687643;-9,24710837122715;190,31342509231848;41,44413586840419
12:29:13.423;0;Mov;1;24109;9,93;0;4,353428659169286;5,349968146305734;4,353428659169286;0,23328348643452254;5,349968146305734;-10,681478316599017;210,02838221381268;47,33420819727164
12:29:13.423;0;Mov;1;24110;9,93;1,062337155140843;5,0568683812982576;7,828754921109653;5,0568683812982576;1,062337155140843;7,828754921109653;-36,561174352244635;260,90273751029997;46,51020844141972
12:29:13.424;0;Wrist;1;4859;10,13;-1,6533220112842189;-13,947960219122898;5,183678987243263;-13,947960219122898;-1,6533220112842189;5,183678987243263;74,19049653614917;-285,47013763847775;166,44795068208867
12:29:13.424;0;Wrist;1;4860;10,13;-1,7107455671864986;-15,624011963255715;5,5413802377391885;-15,624011963255715;-1,7107455671864986;5,5413802377391885;57,6494644001587;-282,93710135196994;141,514328440199
12:29:13.424;0;Wrist;1;4861;10,13;-1,2872462910473952;-17,396967604602192;5,08199131366924;-17,396967604602192;-1,2872462910473952;5,08199131366924;41,2915433210242;-277,90154728843044;118,07611316263313
12:29:13.425;0;Wrist;1;4862;10,13;-0,5897884948080385;-19,469002731406597;4,169194616534928;-19,469002731406597;-0,5897884948080385;4,169194616534928;28,38221381267739;-267,3421430097354;96,56056398205511
12:29:13.425;0;Wrist;1;4863;10,13;0,635248914208655;-21,859261986144595;3,829438249610889;-21,859261986144595;0,635248914208655;3,829438249610889;17,05984679708243;-253,79192480239266;75,93005157628102
12:29:13.472;0;Mov;1;24111;9,95;0,8027344942129276;1,2525529448454238;7,758171330912198;1,2525529448454238;0,8027344942129276;7,758171330912198;-69,64323862422559;352,2141178624836;49,07376323740348
12:29:13.472;0;Mov;1;24112;9,95;-0,6603717273667105;1,5935057327112643;8,609955328531754;1,5935057327112643;-0,6603717273667105;8,609955328531754;-86,00115970336009;450,33112582781456;49,16531876583148
12:29:13.472;0;Mov;1;24113;9,95;-0,7823969475768303;3,2552019753105257;7,6277719389935;3,2552019753105257;-0,7823969475768303;7,6277719389935;-79,77538377025667;537,2173223059785;49,86724448377941
12:29:13.472;0;Mov;1;24114;9,95;0;3,0685750907925655;5,561717486342967;3,0685750907925655;-0,05383465071565905;5,561717486342967;-69,21597949156163;592,2727134006775;51,60679952391125
12:29:13.472;0;Mov;1;24115;9,95;1,06472975859859;2,457252866832484;3,7421064352092044;2,457252866832484;1,06472975859859;3,7421064352092044;-78,12738425855281;609,9124118778038;56,031983397930844
12:29:13.502;0;Mov;1;24116;9,93;0;3,1427472285378584;-1,3662038741340372;3,1427472285378584;-0,16628926337378308;-1,3662038741340372;-91,4029358806116;613,5135959959715;64,88235114597003
12:29:13.502;0;Mov;1;24117;9,93;-3,6775049497207557;0,9367229701376385;-3,2994659737693413;0,9367229701376385;-3,6775049497207557;-3,2994659737693413;-119,08322397534104;602,6184881130406;82,70516067995239
12:29:13.502;0;Mov;1;24118;9,93;-7,648109664448988;-3,1427472285378584;-0,7369365877826777;-3,1427472285378584;-7,648109664448988;-0,7369365877826777;-161,9617297891171;594,3174535355694;109,25626392406996
12:29:13.502;0;Mov;1;24119;9,93;-17,1002780999176;-10,674812883388775;14,325998718222602;-10,674812883388775;-17,1002780999176;14,325998718222602;-143,77269814142278;494,2777794732505;103,2441175572985
12:29:13.502;0;Mov;1;24120;9,93;-20,128177739799188;3,3425337897122103;32,744628742332225;3,3425337897122103;-20,128177739799188;32,744628742332225;-105,74663533433026;323,7098300119022;61,922055726798305
12:29:13.510;0;Wrist;1;4864;10,27;1,076693014313181;-24,445717108676412;2,9178382118442334;-24,445717108676412;1,076693014313181;2,9178382118442334;11,963255714590899;-241,2793359172338;58,59553819391461
12:29:13.510;0;Wrist;1;4865;10,27;0,6376415176664022;-26,831190679647207;0,6268746232871486;-26,831190679647207;0,6376415176664022;0,6268746232871486;19,5623645741142;-228,37000640888698;42,78695028534806
12:29:13.511;0;Wrist;1;4866;10,27;1,1604358043153173;-28,425891521958068;-2,7874385814996794;-28,425891521958068;1,1604358043153173;-2,7874385814996794;32,593768120365;-208,25830866420483;29,87762077700125
12:29:13.511;0;Wrist;1;4867;10,27;0;-28,216534546952726;-5,638282704397717;-28,216534546952726;0,11365092928861355;-5,638282704397717;36,103396710104676;-177,46513260292366;21,820734275337994
12:29:13.511;0;Wrist;1;4868;10,27;-3,487289040803247;-29,38175603503525;-2,4273447275460067;-29,38175603503525;-3,487289040803247;-2,4273447275460067;42,97006134220405;-146,54988250373853;13,458662678914761
12:29:13.511;0;Wrist;1;4869;10,08;-3,2480239265114292;-30,619953001495407;1,292031617175817;-30,619953001495407;-3,2480239265114292;1,292031617175817;54,10931730094302;-121,15848261970885;-1,6479995117038484
12:29:13.511;0;Wrist;1;4870;10,08;-4,1811578722495195;-31,036275063325906;-1,7908994520020143;-31,036275063325906;-4,1811578722495195;-1,7908994520020143;34,18073061311686;-98,57478560747093;-19,196142460402235
12:29:13.511;0;Wrist;1;4871;10,08;-7,535655156102176;-31,001581240272227;-6,364452040162359;-31,001581240272227;-7,535655156102176;-6,364452040162359;3,7232581560716573;-70,16205328531754;-44,98428296761986
12:29:13.511;0;Wrist;1;4872;10,08;-5,712454603717155;-29,58872112186041;-6,314206652272103;-29,58872112186041;-5,712454603717155;-6,314206652272103;-12,17688528092288;-32,227546006653036;-82,49153111362041
12:29:13.512;0;Wrist;1;4873;10,08;-1,27049782841731;-27,520273827326275;-3,932322344126713;-27,520273827326275;-1,27049782841731;-3,932322344126713;-27,680288094729452;1,3733329264198737;-112,82692953276162
12:29:13.566;0;Mov;1;24121;9,93;-15,36680196539201;6,167058320871608;33,169324320200204;6,167058320871608;-15,36680196539201;33,169324320200204;-45,19791253395184;225,0129703665273;-7,293923764763329
12:29:13.566;0;Mov;1;24122;9,93;-6,074941537980285;7,575133709219641;26,70438055055391;7,575133709219641;-6,074941537980285;26,70438055055391;18,005920590838343;112,27759636219368;-55,39109469893491
12:29:13.566;0;Mov;1;24123;9,93;2,0804103118228707;8,685323648792993;21,103183080538347;8,685323648792993;2,0804103118228707;21,103183080538347;20,99673451948607;34,02813806573687;-65,55375835444197
12:29:13.566;0;Mov;1;24124;9,93;3,895236156041139;8,661397137363812;17,868318353831597;8,661397137363812;3,895236156041139;17,868318353831597;-20,11169774468215;-7,263405255287331;-52,79702139347514
12:29:13.566;0;Mov;1;24125;9,93;2,4285409100619524;8,035719054231391;16,829908902249215;8,035719054231391;2,4285409100619524;16,829908902249215;-49,653614917447435;-36,37806329538866;-28,015991698965422
12:29:13.600;0;Wrist;1;4874;10,2;1,3853450594347971;-25,10250022888882;-4,909720049897763;-25,10250022888882;1,3853450594347971;-4,909720049897763;-38,57539597766045;26,612140263069552;-123,38633381145665
12:29:13.601;0;Wrist;1;4875;10,2;3,6140996467482527;-22,58902058473464;-6,505618743705558;-22,58902058473464;3,6140996467482527;-6,505618743705558;-35,24887844477676;55,60472426526688;-121,7688528092288
12:29:13.601;0;Wrist;1;4876;10,2;5,450459398937956;-19,473788415173804;-7,203076361125523;-19,473788415173804;5,450459398937956;-7,203076361125523;-26,367992187261574;86,15375225074007;-111,27048554948577
12:29:13.601;0;Wrist;1;4877;10,2;7,0798550180059205;-17,061996444593646;-8,200811792352061;-17,061996444593646;7,0798550180059205;-8,200811792352061;-15,076143681142613;114,68855861079744;-93,72234260078737
12:29:13.601;0;Wrist;1;4878;10,2;14,055629520554216;-2,5888486796929837;-17,528563417462692;-2,5888486796929837;14,055629520554216;-17,528563417462692;-24,109622486037782;153,44706564531387;-45,564134647663806
12:29:13.623;0;Mov;1;24126;9,96;1,3733818037202064;7,355009899441511;17,241445280312508;7,355009899441511;1,3733818037202064;17,241445280312508;-51,54576250495926;-65,309610278634;-0,9155552842799157
12:29:13.623;0;Mov;1;24127;9,96;0,6149113675725577;5,525827719199194;18,807433927426985;5,525827719199194;0,6149113675725577;18,807433927426985;-38,81954405346843;-94,5463423566393;25,269325846125675
12:29:13.624;0;Mov;1;24128;9,96;0;3,5841915074617754;19,516855754264963;3,5841915074617754;0,3553087066446425;19,516855754264963;-26,97836237678152;-123,63048188726462;47,242652668843654
12:29:13.624;0;Mov;1;24129;9,96;0;2,5697073751792963;19,015594958342234;2,5697073751792963;-0,2488357218438139;19,015594958342234;-17,60917996765038;-147,19077120273445;68,5140537736137
12:29:13.624;0;Mov;1;24130;9,96;-1,8686606141468551;3,4131169030579547;18,897158345286417;3,4131169030579547;-1,8686606141468551;18,897158345286417;-8,880886257515183;-154,5457319864498;92,53212073122349
12:29:13.656;0;Mov;1;24131;9,97;-4,2158512184514905;4,195513969847712;20,40213667714469;4,195513969847712;-4,2158512184514905;20,40213667714469;7,17184972685934;-152,31788079470198;113,22367015594958
12:29:13.657;0;Mov;1;24132;9,97;-6,923136272774438;4,378551591540269;23,23742828150273;4,378551591540269;-6,923136272774438;23,23742828150273;34,66902676473281;-161,62602618488114;124,91225928525651
12:29:13.657;0;Mov;1;24133;9,97;-9,650758575701163;4,106985972930082;25,35492454298532;4,106985972930082;-9,650758575701163;25,35492454298532;69,49064607684561;-183,93505661183508;127,23166600543229
12:29:13.657;0;Mov;1;24134;9,97;-10,856654560991242;3,9406965754417556;24,765135273293254;3,9406965754417556;-10,856654560991242;24,765135273293254;104,46485793633839;-212,19519638660847;121,18900112918485
12:29:13.657;0;Mov;1;24135;9,97;-10,37094676046022;3,739713831751457;22,518436994537186;3,739713831751457;-10,37094676046022;22,518436994537186;123,44737083040864;-241,79815057832576;111,17893002105777
12:29:13.665;0;Wrist;1;4879;10,33;-4,537663178655355;9,124375324259162;-7,82636207922605;9,124375324259162;-4,537663178655355;-7,82636207922605;-92,62367625965148;190,77120273445846;-12,573625904110843
12:29:13.665;0;Wrist;1;4880;10,33;-7,816791665395062;1,5935057327112643;5,023370979186376;1,5935057327112643;-7,816791665395062;5,023370979186376;-54,75020599993896;326,8837549974059;-17,456587420270395
12:29:13.665;0;Wrist;1;4881;10,33;-13,56513603625599;-11,964452612384411;29,69878231147191;-11,964452612384411;-13,56513603625599;29,69878231147191;-76,14368114261299;452,43690298165836;-38,69747001556444
12:29:13.665;0;Wrist;1;4882;10,33;3,3437299722281564;-6,445802465132603;25,66237945188757;-6,445802465132603;3,3437299722281564;25,66237945188757;-137,45536667989134;397,9308450575274;-8,423108615375225
12:29:13.665;0;Wrist;1;4883;10,33;3,8330272740104374;6,939884735404523;-0,7357402264473403;6,939884735404523;3,8330272740104374;-0,7357402264473403;-174,016541032136;385,54033021027254;30,793176061281166
12:29:13.666;0;Wrist;1;4884;10,1;-22,60098384044923;-8,580047189245278;23,888229773857844;-8,580047189245278;-22,60098384044923;23,888229773857844;-100,86367381817072;429,79216895046847;-20,661030915250098
12:29:13.666;0;Wrist;1;4885;10,1;9,58137188329722;-14,849990081484421;2,5051058896908476;-14,849990081484421;9,58137188329722;2,5051058896908476;-15,533921323282572;414,0140995513779;-39,85717337565233
12:29:13.666;0;Wrist;1;4886;10,1;11,188036935026094;-12,744456122013;9,754839091158788;-12,744456122013;11,188036935026094;9,754839091158788;-30,30487990966521;245,91814935758538;-23,957029938657797
12:29:13.666;0;Wrist;1;4887;10,1;-4,949199079866939;-1,9571887302774134;4,4455459189123205;-1,9571887302774134;-4,949199079866939;4,4455459189123205;-47,18161564989166;84,01745658742027;-25,391399884029664
12:29:13.666;0;Wrist;1;4888;10,1;1,3171544303338725;-1,4284127561647388;2,9082675595873897;-1,4284127561647388;1,3171544303338725;2,9082675595873897;-31,983397930845058;59,26694540238655;-19,196142460402235
12:29:13.712;0;Mov;1;24136;8,85;-9,299038476210821;3,5973509456923125;19,172313226722007;3,5973509456923125;-9,299038476210821;19,172313226722007;112,58278145695364;-267,86095767082736;98,42219306009095
12:29:13.713;0;Mov;1;24137;8,85;-9,013117236854152;3,7935484824671164;14,148942724387341;3,7935484824671164;-9,013117236854152;14,148942724387341;81,05716116824854;-285,0733970152898;83,13241981261635
12:29:13.713;0;Mov;1;24138;8,85;-10,774108668782617;4,485024472029786;8,772655224768823;4,485024472029786;-10,774108668782617;8,772655224768823;51,393169957579275;-289,4680623798334;65,279091769158
12:29:13.713;0;Mov;1;24139;8,85;-13,864217429120762;4,879811910611286;5,80696422849208;4,879811910611286;-13,864217429120762;5,80696422849208;44,22132023071993;-281,6858424634541;42,4207281716361
12:29:13.713;0;Mov;1;24140;8,85;-14,878701322977387;4,256526669362469;6,771202734458449;4,256526669362469;-14,878701322977387;6,771202734458449;62,898648030030216;-273,62895596179084;13,183996093630787
12:29:13.722;0;Wrist;1;4889;10,08;-1,3757744071779534;-0,6591754256378368;2,3196754261146886;-0,6591754256378368;-1,3757744071779534;2,3196754261146886;-28,77895443586535;47,151097140415665;-16,96829126865444
12:29:13.722;0;Wrist;1;4890;10,08;-1,5001922904522844;-1,0491775976973785;1,7107455671864986;-1,0491775976973785;-1,5001922904522844;1,7107455671864986;-16,022217474898525;47,05954161198767;-10,620441297647023
12:29:13.722;0;Wrist;1;4891;10,08;0,7189917042107914;-2,325657053971984;2,4704123050630207;-2,325657053971984;0,7189917042107914;2,4704123050630207;-2,685628833887753;41,13895077364422;-3,7537766655476545
12:29:13.722;0;Wrist;1;4892;10,08;1,1939329680013429;-0,8230719812425611;1,2764794562746056;-0,8230719812425611;1,1939329680013429;1,2764794562746056;-7,507553331095309;24,842066713461715;-2,5940733054597613
12:29:13.722;0;Wrist;1;4893;10,08;0;0;0,8529801205290384;0,23328348643452254;0,4091433573603015;0,8529801205290384;-15,32029175695059;19,196142460402235;-5,645924253059481
12:29:13.775;0;Mov;1;24141;9,09;-13,823541978209784;3,282717511139256;9,712967696157719;3,282717511139256;-13,823541978209784;9,712967696157719;75,10605182042909;-277,10806604205453;-20,783104953154087
12:29:13.775;0;Mov;1;24142;9,09;-12,033839304788355;2,1174962614825894;11,33638168736839;2,1174962614825894;-12,033839304788355;11,33638168736839;55,87939085055086;-290,3225806451613;-57,71050141911069
12:29:13.775;0;Mov;1;24143;9,09;-10,55877006591998;0,8493911557359538;10,893741225928526;0,8493911557359538;-10,55877006591998;10,893741225928526;18,524735251930295;-309,6407971434675;-90,09063997314371
12:29:13.775;0;Mov;1;24144;9,09;-9,118393696401867;-1,0300362931836908;9,145908993804742;-1,0300362931836908;-9,118393696401867;9,145908993804742;-11,84118167668691;-327,4330881679739;-110,59907834101382
12:29:13.775;0;Mov;1;24145;9,09;-7,227002872554705;-3,0386669515060882;7,435163426618244;-3,0386669515060882;-7,227002872554705;7,435163426618244;-27,1614734336375;-340,3118991668447;-119,44944608905301
12:29:13.782;0;Wrist;1;4894;10,2;0;0;0,5562913907284768;0,4498184208292642;-0,0011963255947428648;0,5562913907284768;-18,82992034669027;20,477919858394117;-8,301034577471237
12:29:13.782;0;Wrist;1;4895;10,2;0;0;0,7477034821619312;-0,16868191153637807;0,4617816765438551;0,7477034821619312;-19,867549668874172;23,56028931546983;-9,399700918607135
12:29:13.782;0;Wrist;1;4896;10,2;0,8063234590060121;0;0,9104037956442458;-0,2631916257209998;0,8063234590060121;0,9104037956442458;-23,926511429181797;23,37717825861385;-10,620441297647023
12:29:13.782;0;Wrist;1;4897;10,2;0,6567827625736259;0;1,0336253175832393;-0,3612903345019379;0,6567827625736259;1,0336253175832393;-27,405621509445478;21,21036408581805;-12,26844080935087
12:29:13.782;0;Wrist;1;4898;10,2;0;-0,6053407749221777;1,2405896891308328;-0,6053407749221777;0,4246955778679769;1,2405896891308328;-30,060731833857233;18,67732779931028;-12,482070375682852
12:29:13.803;0;Mov;1;24146;9,2;-5,59760725348674;-4,994659260841701;7,311942083498642;-4,994659260841701;-5,59760725348674;7,311942083498642;-34,882656331064794;-350,9933774834437;-119,510483108005
12:29:13.803;0;Mov;1;24147;9,2;-3,3198034607989744;-6,090493579668569;6,888442926572466;-6,090493579668569;-3,3198034607989744;6,888442926572466;-45,411542100283825;-364,1468550675985;-113,16263313699758
12:29:13.803;0;Mov;1;24148;9,2;-0,7285622968611714;-6,811877708517716;3,9430891788995024;-6,811877708517716;-0,7285622968611714;3,9430891788995024;-65,218054750206;-373,2718894009217;-101,0162663655507
12:29:13.803;0;Mov;1;24149;9,2;-0,9977355504394665;-7,1863278984954375;1,1400983172856838;-7,1863278984954375;-0,9977355504394665;1,1400983172856838;-85,29923398541216;-373,8822595904416;-81,02664265877254
12:29:13.803;0;Mov;1;24150;9,2;-4,221832846308787;-8,029737426374096;0;-8,029737426374096;-4,221832846308787;0,44862208929715874;-89,41923276467178;-365,15396588030643;-64,42457350383008
12:29:13.862;0;Mov;1;24151;9,42;-4,861867027039399;-8,356334116641744;-0,5335612406346324;-8,356334116641744;-4,861867027039399;-0,5335612406346324;-84,13953062532426;-356,05945005645924;-64,21094393749809
12:29:13.862;0;Mov;1;24152;9,42;-3,3054476016266365;-8,339586130863369;-2,0947661709952086;-8,339586130863369;-3,3054476016266365;-2,0947661709952086;-94,05804620502335;-347,697378460036;-75,65538499099704
12:29:13.862;0;Mov;1;24153;9,42;-2,816150538270211;-8,999957083346048;-1,228626433416242;-8,999957083346048;-2,816150538270211;-1,228626433416242;-120,02929776909696;-336,37501144444104;-90,91463972899564
12:29:13.862;0;Mov;1;24154;9,42;-2,7156590472121342;-10,882973914304026;2,0648580317087313;-10,882973914304026;-2,7156590472121342;2,0648580317087313;-143,49803155613878;-326,09027375103;-108,73744926297799
12:29:13.862;0;Mov;1;24155;9,42;-1,3590258253349405;-13,760136913663137;4,392907689138463;-13,760136913663137;-1,3590258253349405;4,392907689138463;-156,89565721610157;-321,51249732963043;-131,83996093630788
12:29:13.892;0;Mov;1;24156;9,53;1,1329203876995149;-17,318008590960417;6,0187140453810235;-17,318008590960417;1,1329203876995149;6,0187140453810235;-163,27402569658497;-320,4443494979705;-153,66069521164587
12:29:13.892;0;Mov;1;24157;9,53;4,24815219962157;-20,848366878261665;6,0737451170384835;-20,848366878261665;4,24815219962157;6,0737451170384835;-162,87728507339702;-320,10864589373455;-166,96676534318064
12:29:13.892;0;Mov;1;24158;9,53;7,940013008514664;-24,074856181524094;4,815210425122837;-24,074856181524094;7,940013008514664;4,815210425122837;-157,07876827295755;-318,73531296731466;-167,45506149479658
12:29:13.893;0;Mov;1;24159;9,53;11,73356101413007;-26,511770607623525;3,1188207171086764;-26,511770607623525;11,73356101413007;3,1188207171086764;-146,58040101321453;-312,6621295815912;-151,58543656727807
12:29:13.893;0;Mov;1;24160;9,53;14,209954947050386;-28,523991363261818;2,417774075289163;-28,523991363261818;14,209954947050386;2,417774075289163;-137,9741813409833;-296,5788750877407;-121,43314920499283
12:29:13.901;0;Wrist;1;4899;10,44;0;0;1,2776757580034792;0,040675070919770656;0,468959635933256;1,2776757580034792;-31,830805383465073;16,3274025696585;-12,207403790398876
12:29:13.901;0;Wrist;1;4900;10,44;0;0;1,577953452597125;0,18782311173875393;-0,412732322153386;1,577953452597125;-30,97628711813715;19,501327555162206;-11,41392254402295
12:29:13.901;0;Wrist;1;4901;10,44;-0,644819506859035;0;1,7346720786156804;0,09690236979802469;-0,644819506859035;1,7346720786156804;-21,51554918057802;26,367992187261574;-6,897183141575366
12:29:13.901;0;Wrist;1;4902;10,44;-0,6902798666531876;0;2,73838937612537;0,09809870133013016;-0,6902798666531876;2,73838937612537;-13,519699697866756;37,04947050386059;-2,3499252296517836
12:29:13.901;0;Wrist;1;4903;10,44;-0,9187780865657521;0,7213843076685384;3,0147404400769067;0,7213843076685384;-0,9187780865657521;3,0147404400769067;-5,981627857295449;58,99227881710257;-0,18311105685598317
12:29:13.902;0;Wrist;1;4904;10,15;-0,9295449809450056;1,8638752880184333;2,4931426339762566;1,8638752880184333;-0,9295449809450056;2,4931426339762566;11,505478072450941;90,79256569109165;-1,0681478316599018
12:29:13.902;0;Wrist;1;4905;10,15;-1,6222174510559404;2,9345866744743185;3,070967694250313;2,9345866744743185;-1,6222174510559404;3,070967694250313;43,54991302224799;117,86248359630116;-7,538071840571306
12:29:13.902;0;Wrist;1;4906;10,15;-1,1149755041276284;3,3497116000854517;2,300534121601001;3,3497116000854517;-1,1149755041276284;2,300534121601001;64,88235114597003;149,17447431867427;-12,81777397991882
12:29:13.902;0;Wrist;1;4907;10,15;0;5,375091078676718;2,3077121704000976;5,375091078676718;-0,1914120914334544;2,3077121704000976;74,00738547929319;173,10098574785607;-20,75258644367809
12:29:13.902;0;Wrist;1;4908;10,15;-0,9821833299317911;11,066011535996582;5,780645352031007;11,066011535996582;-0,9821833299317911;5,780645352031007;78,64619891964476;205,69475386822108;-35,73717459639271
12:29:13.903;0;Wrist;1;4909;9,58;-1,4104678725928526;8,749925611133152;9,125571268349255;8,749925611133152;-1,4104678725928526;9,125571268349255;116,76381725516526;305,3682058168279;-63,35642567217017
12:29:13.903;0;Wrist;1;4910;9,58;2,1749199365977967;4,908524105807673;12,941849841303751;4,908524105807673;2,1749199365977967;12,941849841303751;191,38157292397838;440,50416577654346;-115,08529923398541
12:29:13.903;0;Wrist;1;4911;9,58;1,1604358043153173;9,812262527848139;11,875924138615071;9,812262527848139;1,1604358043153173;11,875924138615071;223,33445234534744;615,1310769981994;-158,7878048036134
12:29:13.903;0;Wrist;1;4912;9,58;-1,208288827173681;8,441273804437392;7,956761471144749;8,441273804437392;-1,208288827173681;7,956761471144749;224,73830378124333;744,5905941953795;-182,98898281807917
12:29:13.903;0;Wrist;1;4913;9,58;-2,0505021725363934;4,952787865840632;6,90399496826075;4,952787865840632;-2,0505021725363934;6,90399496826075;246,55903805658133;785,6379894405957;-208,96023438215278
12:29:13.960;0;Wrist;1;4914;9,8;-2,263447933515427;-1,953599705877865;6,336936742759484;-1,953599705877865;-2,263447933515427;6,336936742759484;272,07251197851497;856,0747093111972;-249,61088900418105
12:29:13.960;0;Wrist;1;4915;9,8;17,282118823816646;-25,229310357982115;29,877035203100682;-25,229310357982115;17,282118823816646;29,877035203100682;229,74333933530687;753,9292580950346;-282,296212652974
12:29:13.961;0;Wrist;1;4916;9,8;13,590258491775261;14,946892071291238;35,388508255256816;14,946892071291238;13,590258491775261;35,388508255256816;71,99316385387738;102,02337717825861;-208,4719382305368
12:29:13.961;0;Wrist;1;4917;9,8;13,591455389568774;9,935483870967742;23,36902409436323;9,935483870967742;13,591455389568774;23,36902409436323;68,30042420728172;75,50279244361705;-173,83342997528
12:29:13.961;0;Wrist;1;4918;9,8;10,434351825006866;10,849476989043856;8,87912858211005;10,849476989043856;10,434351825006866;8,87912858211005;22,583697012237923;59,968871120334484;-138,1267738883633
12:29:14.012;0;Mov;1;24161;10,01;14,178850863673818;-30,604401913510543;1,906942984748375;-30,604401913510543;14,178850863673818;1,906942984748375;-126,0414441358684;-270,5465865047151;-86,42841883602405
12:29:14.012;0;Mov;1;24162;10,01;12,383166562395093;-32,33428830835902;0;-32,33428830835902;12,383166562395093;-0,32540056735816525;-96,43848994415113;-237,61711478011415;-52,27820673238319
12:29:14.012;0;Mov;1;24163;10,01;9,790728858302561;-33,059263130588704;-2,7886350024414805;-33,059263130588704;9,790728858302561;-2,7886350024414805;-52,2171697134312;-200,75075533310954;-20,020142216254158
12:29:14.012;0;Mov;1;24164;10,01;6,383593344676046;-33,339201788384656;-4,298398064363536;-33,339201788384656;6,383593344676046;-4,298398064363536;-15,2287362285226;-160,31373027741324;7,9958494827112645
12:29:14.013;0;Mov;1;24165;10,01;2,8795556028168585;-33,34877315591906;-6,503225901821955;-33,34877315591906;2,8795556028168585;-6,503225901821955;-0,3051850947599719;-122,7454451124607;24,9946592608417
12:29:14.014;0;Mov;1;24166;9,83;0,5347575423635059;-32,449137089144564;-10,704721022675253;-32,449137089144564;0,5347575423635059;-10,704721022675253;-9,949034089175084;-89,32767723624379;25,482955412457656
12:29:14.014;0;Mov;1;24167;9,83;0,5754326356357006;-30,67976928006836;-15,61803033539842;-30,67976928006836;0,5754326356357006;-15,61803033539842;-32,776879177220984;-51,27109591967528;9,765923032319101
12:29:14.014;0;Mov;1;24168;9,83;1,9224952648625142;-30,189275795770136;-14,060414250617999;-30,189275795770136;1,9224952648625142;-14,060414250617999;-52,766502883999145;-9,002960295419172;-9,491256447035127
12:29:14.014;0;Mov;1;24169;9,83;2,2167913315988645;-29,595898693807793;-9,506003563035982;-29,595898693807793;2,2167913315988645;-9,506003563035982;-57,83257545701468;26,764732810449537;-23,04147465437788
12:29:14.014;0;Mov;1;24170;9,83;4,154838995788445;-28,540740302743615;-7,99025887325663;-28,540740302743615;4,154838995788445;-7,99025887325663;-52,33924375133518;53,071687978759115;-25,63554795983764
12:29:14.032;0;Wrist;1;4919;10,08;6,028284459212012;12,22764423810541;3,16667373996704;12,22764423810541;6,028284459212012;3,16667373996704;-0,3967406231879635;39,61302529984435;-115,63463240455336
12:29:14.032;0;Wrist;1;4920;10,08;5,085580099642933;12,73249286629841;5,351164567247536;12,73249286629841;5,085580099642933;5,351164567247536;25,025177770317697;35,37095248268074;-101,44352549821467
12:29:14.032;0;Wrist;1;4921;10,08;6,230463862269967;13,82952360606708;7,30954924161504;13,82952360606708;6,230463862269967;7,30954924161504;53,65153965880307;35,493026520584735;-94,66841639454329
12:29:14.032;0;Wrist;1;4922;10,08;8,578851245155187;15,580944624164555;7,896945192571795;15,580944624164555;8,578851245155187;7,896945192571795;60,70131534775842;32,380138554033024;-88,38160344248787
12:29:14.032;0;Wrist;1;4923;10,08;11,233497116000855;17,10266998809778;9,09805597094638;17,10266998809778;11,233497116000855;9,09805597094638;58,50398266548662;30,152287362285225;-76,052125614185
12:29:14.043;0;Mov;1;24171;9,85;5,681350043488876;-26,98192732016968;-9,684255500961333;-26,98192732016968;5,681350043488876;-9,684255500961333;-47,66991180150762;74,49568163090915;-14,801477095858639
12:29:14.043;0;Mov;1;24172;9,85;5,944541669209876;-29,452339625232703;-24,03777047029023;-29,452339625232703;5,944541669209876;-24,03777047029023;-43,42783898434401;147,8011413922544;20,355845820490128
12:29:14.043;0;Mov;1;24173;9,85;3,8940397350993377;-22,876138721884825;-15,206494911038545;-22,876138721884825;3,8940397350993377;-15,206494911038545;27,985473189489426;266,9148838770714;87,58812219611194
12:29:14.043;0;Mov;1;24174;9,85;-2,3842769116031373;4,226618530075991;30,079214606158637;4,226618530075991;-2,3842769116031373;30,079214606158637;138,0046998504593;240,54689168980988;83,16293832209234
12:29:14.043;0;Mov;1;24175;9,85;13,057893612475967;0;23,134544663838618;-0,21414228623214668;13,057893612475967;23,134544663838618;76,81508835108494;360,8508560441908;31,495101779229103
12:29:14.102;0;Mov;1;24176;9,95;11,39260822626423;-12,844947851496933;26,052383114108707;-12,844947851496933;11,39260822626423;26,052383114108707;109,04263435773797;435,49913022247995;82,33893856624043
12:29:14.102;0;Mov;1;24177;9,95;-10,156804101687674;-13,907284768211921;23,06874675740837;-13,907284768211921;-10,156804101687674;23,06874675740837;194,92172002319407;418,2866908780175;77,02871791741691
12:29:14.102;0;Mov;1;24178;9,95;3,268361413541063;2,535014028977325;0,9534714923741875;2,535014028977325;3,268361413541063;0,9534714923741875;197,33268227179784;386,7305520798364;-2,380443739127781
12:29:14.102;0;Mov;1;24179;9,95;9,733305421613208;-6,196966460158086;19,301517151402326;-6,196966460158086;9,733305421613208;19,301517151402326;155,91906491286966;410,90121158482617;1,5564439832758568
12:29:14.102;0;Mov;1;24180;9,95;-14,890664578691977;-25,285536896877957;6,408716277047029;-25,285536896877957;-14,890664578691977;6,408716277047029;120,39551988280893;342,5092318491165;38,14813684499649
12:29:14.200;0;Wrist;1;4924;10,68;13,940781693472092;17,79175504318369;12,042213774529252;17,79175504318369;13,940781693472092;12,042213774529252;50,32502212591937;23,194067201757868;-55,4521317178869
12:29:14.200;0;Wrist;1;4925;10,68;15,096432767723625;18,444948423718987;14,182439649647511;18,444948423718987;15,096432767723625;14,182439649647511;37,93450727866451;7,93481246375927;-25,42191839350566
12:29:14.200;0;Wrist;1;4926;10,68;15,20051328318125;18,19611194189276;15,968554490798669;18,19611194189276;15,20051328318125;15,968554490798669;29,02310251167333;-11,505478072450941;9,613330484939116
12:29:14.200;0;Wrist;1;4927;10,68;15,982909634693442;17,262977996154667;19,606580172124392;17,262977996154667;15,982909634693442;19,606580172124392;23,46873378704184;-33,20413830988495;45,716727195043795
12:29:14.200;0;Wrist;1;4928;10,68;15,986499374370556;15,769963873714408;23,997095019379252;15,769963873714408;15,986499374370556;23,997095019379252;18,524735251930295;-49,9893185216834;86,15375225074007
12:29:14.202;0;Wrist;1;4929;10,33;14,385814996795556;15,092843981749931;27,210425122837;15,092843981749931;14,385814996795556;27,210425122837;12,512588885158848;-65,76738792077396;129,94781334879605
12:29:14.202;0;Wrist;1;4930;10,33;11,288528664510025;14,579619930112614;24,51749664296396;14,579619930112614;11,288528664510025;24,51749664296396;-8,972441785943175;-73,82427442243721;170,87313455610828
12:29:14.202;0;Wrist;1;4931;10,33;6,577398277993103;11,572057061983093;19,631702627643666;11,572057061983093;6,577398277993103;19,631702627643666;-50,23346659749138;-83,71227149266029;195,31846064638202
12:29:14.202;0;Wrist;1;4932;10,33;-1,5193334757530441;8,778636852626118;17,31681264687033;8,778636852626118;-1,5193334757530441;17,31681264687033;-75,19760734885708;-102,87789544358654;191,41209143345438
12:29:14.202;0;Wrist;1;4933;10,33;-6,852553159428694;8,270198484756005;16,293954283272804;8,270198484756005;-6,852553159428694;16,293954283272804;-47,8835413678396;-121,7993713187048;160,74098941007722
12:29:14.253;0;Mov;1;24181;10,2;-5,32364879299295;-11,433283677175206;7,151634552293466;-11,433283677175206;-5,32364879299295;7,151634552293466;67,50694296090579;179,6014282662435;62,16620380260628
12:29:14.253;0;Mov;1;24182;10,2;4,822388473921934;-1,934458520577105;5,6526383251442;-1,934458520577105;4,822388473921934;5,6526383251442;53,34635456404309;95,09567552720725;59,54161198767052
12:29:14.253;0;Mov;1;24183;10,2;0,783593249305704;-2,5314250045777764;1,4583208954512161;-2,5314250045777764;0,783593249305704;1,4583208954512161;42,87850581377606;79,86693929868466;42,02398754844813
12:29:14.253;0;Mov;1;24184;10,2;0,5359538440923796;-2,3244606330301827;2,740781979583117;-2,3244606330301827;0,5359538440923796;2,740781979583117;41,71880245368816;59,724723044526506;30,610065004425184
12:29:14.253;0;Mov;1;24185;10,2;0;-1,7597948917737358;1,9847041468932158;-1,7597948917737358;0,4964751121555223;1,9847041468932158;33,02102725302896;42,3902096621601;23,102511673329875
12:29:14.284;0;Mov;1;24186;10,21;0,8446058892139958;-1,0587481307412947;1,3805597333063753;-1,0587481307412947;0,8446058892139958;1,3805597333063753;22,766808069093905;34,15021210364086;17,456587420270395
12:29:14.284;0;Mov;1;24187;10,21;0;0;1,0096988061540575;0,27276224817461164;-0,16389660030957212;1,0096988061540575;15,839106418042542;33,23465681936094;12,421033356730858
12:29:14.284;0;Mov;1;24188;10,21;-0,8960478768654438;0,5287759145062105;1,1723990600299081;0,5287759145062105;-0,8960478768654438;1,1723990600299081;12,909329508346813;39,1552476577044;13,458662678914761
12:29:14.284;0;Mov;1;24189;10,21;0;0;1,2645162005600146;0,1770561875562685;-0,22251656225203711;1,2645162005600146;13,153477584154789;45,89983825189978;16,20532853175451
12:29:14.284;0;Mov;1;24190;10,21;-0,5873958913502915;0;1,4391797101504562;-0,236872466129223;-0,5873958913502915;1,4391797101504562;13,48918118839076;49,56205938901944;15,289773247474594
12:29:14.287;0;Mov;1;24191;10,1;-0,8481948540070803;0;1,4152531987212744;-0,3218115727618488;-0,8481948540070803;1,4152531987212744;16,937772759178443;51,82042909024323;15,350810266426588
12:29:14.287;0;Mov;1;24192;10,1;0;0;1,8818201715903196;-0,35770133990562153;-0,24046144582392345;1,8818201715903196;22,583697012237923;54,53657643360698;15,350810266426588
12:29:14.287;0;Mov;1;24193;10,1;-1,2740867336039308;-1,594702034440138;1,1209571319849239;-1,594702034440138;-1,2740867336039308;1,1209571319849239;30,487990966521195;61,12857448042238;14,77095858638264
12:29:14.287;0;Mov;1;24194;10,1;1,348258990562151;0;1,5229225001525926;-0,1961974026602603;1,348258990562151;1,5229225001525926;49,195837275307476;52,156132694479204;13,153477584154789
12:29:14.287;0;Mov;1;24195;10,1;0;0,7381328895115512;2,019397612308115;0,7381328895115512;-0,16868191153637807;2,019397612308115;48,40235602893155;50,53865169225135;9,24710837122715
12:29:14.312;0;Mov;1;24196;9,83;0;1,6664815687276833;1,9918820764793848;1,6664815687276833;0,18543046357615894;1,9918820764793848;29,02310251167333;73,09183019501327;18,79940183721427
12:29:14.312;0;Mov;1;24197;9,83;0,5909848561433759;4,617816705832087;3,9718008972441785;4,617816705832087;0,5909848561433759;3,9718008972441785;13,306070131534776;113,0405590990936;27,985473189489426
12:29:14.312;0;Mov;1;24198;9,83;-0,7524888082903531;4,394104110080264;3,301858577227088;4,394104110080264;-0,7524888082903531;3,301858577227088;9,765923032319101;189,85564745017854;38,78902554399243
12:29:14.312;0;Mov;1;24199;9,83;-1,6772485227134006;5,906259537034211;2,179705143513291;5,906259537034211;-1,6772485227134006;2,179705143513291;30,610065004425184;237,0677816095462;47,36472670674764
12:29:14.313;0;Mov;1;24200;9,83;-2,0696432386242254;3,0147404400769067;4,901346057008576;3,0147404400769067;-2,0696432386242254;4,901346057008576;54,90279854731895;266,2434766685995;51,026947843867305
12:29:14.347;0;Mov;1;24201;9,73;0;4,948002658925138;9,979748107852412;4,948002658925138;0,17346720786156805;9,979748107852412;25,360881374553667;292,00109866634114;59,724723044526506
12:29:14.347;0;Mov;1;24202;9,73;-2,1450117973113194;1,4320017805642873;11,890280236213263;1,4320017805642873;-2,1450117973113194;11,890280236213263;-13,275551622058778;389,5687734611042;83,46812341685232
12:29:14.347;0;Mov;1;24203;9,73;-1,3566332218771935;2,450074818033387;9,3289466154973;2,450074818033387;-1,3566332218771935;9,3289466154973;0,15259254737998595;502,0599993896298;98,02545243690298
12:29:14.347;0;Mov;1;24204;9,73;1,0049134800256356;4,524503501998963;5,9361676763206885;4,524503501998963;1,0049134800256356;5,9361676763206885;-12,115848261970886;579,5770134586627;107,6082644123661
12:29:14.347;0;Mov;1;24205;9,73;0;4,388122482222968;6,510403950621051;4,388122482222968;0,004785302378971459;6,510403950621051;-40,13183996093631;622,4860377819148;114,81063264870144
12:29:14.380;0;Wrist;1;4934;11,03;-5,256654465620899;7,548814355906858;17,06319238868374;7,548814355906858;-5,256654465620899;17,06319238868374;-11,047700430310984;-140,35462508011108;118,41181676686911
12:29:14.380;0;Wrist;1;4935;11,03;-1,7047639393292031;7,009271427808466;19,117282631916257;7,009271427808466;-1,7047639393292031;19,117282631916257;-15,961180455946531;-164,22009949034089;79,59227271340067
12:29:14.380;0;Wrist;1;4936;11,03;0;6,9219398518326365;18,75479712820826;6,9219398518326365;0,3744499217486343;18,75479712820826;-54,87228003784295;-188,69594409009065;55,87939085055086
12:29:14.380;0;Wrist;1;4937;11,03;0;6,0773339030121765;16,137236014893034;6,0773339030121765;-0,22610554194673757;16,137236014893034;-90,1516769920957;-217,200231940672;41,627246925260174
12:29:14.380;0;Wrist;1;4938;11,03;0;4,310361320078127;13,683571695608386;4,310361320078127;-0,12681051653530992;13,683571695608386;-98,9410077211829;-252,44911038544876;29,328287606433303
12:29:14.381;0;Wrist;1;4939;10,81;2,007434356593524;2,282589238029115;12,978936506241036;2,282589238029115;2,007434356593524;12,978936506241036;-88,13745536667989;-289,65117343668936;21,546067690054016
12:29:14.381;0;Wrist;1;4940;10,81;3,379619739371929;0,7812005862414929;11,863960882900479;0,7812005862414929;3,379619739371929;11,863960882900479;-79,10397656178472;-324,9610889004181;22,431104464857935
12:29:14.381;0;Wrist;1;4941;10,81;2,5553515160069584;0;9,564622943815424;-0,06460158234895245;2,5553515160069584;9,564622943815424;-73,51908932767724;-355,23545030060734;27,436140018921474
12:29:14.382;0;Wrist;1;4942;10,81;2,152189846110416;-0,5945738209364605;8,003418073061312;-0,5945738209364605;2,152189846110416;8,003418073061312;-61,64738914151433;-378,2158879360332;29,908139286477248
12:29:14.382;0;Wrist;1;4943;10,81;2,1115146336252937;-1,2070925254448073;7,422004226813563;-1,2070925254448073;2,1115146336252937;7,422004226813563;-47,48680074465163;-396,09973448896756;31,647694326609088
12:29:14.406;0;Mov;1;24206;9,96;1,7203162194433423;4,3462510872219005;3,2384532742545855;4,3462510872219005;1,7203162194433423;3,2384532742545855;-72,51197851496933;651,2344737083041;126,13299966429639
12:29:14.406;0;Mov;1;24207;9,96;-3,1068574613940854;0;2,046913148136845;0,19380473959604938;-3,1068574613940854;2,046913148136845;-100,22278511917477;657,2161015655995;135,53270058290354
12:29:14.406;0;Mov;1;24208;9,96;-6,84896389660329;-3,0637898838770714;6,864516415143284;-3,0637898838770714;-6,84896389660329;6,864516415143284;-167,2414319284646;613,7882625812555;160,28321176793725
12:29:14.407;0;Mov;1;24209;9,96;-8,020167012543107;-12,441785943174535;24,04973372600482;-12,441785943174535;-8,020167012543107;24,04973372600482;-188,36024048585466;449,8733481856746;191,04586931974242
12:29:14.407;0;Mov;1;24210;9,96;-16,998590426343576;0;37,20931501205481;-0,15193334459498123;-16,998590426343576;37,20931501205481;-107,97448652607807;214,78926969206825;166,11224707785271
12:29:14.412;0;Wrist;1;4944;10,65;1,7717581474883266;-2,1892757957701345;7,7976503608813745;-2,1892757957701345;1,7717581474883266;7,7976503608813745;-32,86843470564897;-412,732322153386;33,23465681936094
12:29:14.413;0;Wrist;1;4945;10,65;4,4766504791405985;-4,6656697286904505;8,39581266975921;-4,6656697286904505;4,4766504791405985;8,39581266975921;-17,27347636341441;-427,62535477767267;35,24887844477676
12:29:14.413;0;Wrist;1;4946;10,65;7,154026917325358;-8,460414632099369;7,642128036591693;-8,460414632099369;7,154026917325358;7,642128036591693;-7,263405255287331;-439,89379558702353;49,34842982268746
12:29:14.413;0;Wrist;1;4947;10,65;7,3442425878170114;-11,264602153080844;5,482760380108036;-11,264602153080844;7,3442425878170114;5,482760380108036;6,134220404675435;-448,8357188634907;78,12738425855281
12:29:14.413;0;Wrist;1;4948;10,65;6,968596453749199;-13,52326464125492;4,164409409619434;-13,52326464125492;6,968596453749199;4,164409409619434;29,02310251167333;-450,6668294320505;114,0476699118015
12:29:14.414;0;Wrist;1;4949;10,57;5,830890739921262;-15,688613925595874;5,779448931089205;-15,688613925595874;5,830890739921262;5,779448931089205;52,003540147099216;-445,38712729270304;152,134769737846
12:29:14.414;0;Wrist;1;4950;10,57;3,7947449034089176;-18,270285271767328;8,901859149449141;-18,270285271767328;3,7947449034089176;8,901859149449141;66,98812829981384;-436,5672780541398;186,59016693624685
12:29:14.414;0;Wrist;1;4951;10,57;0,6412305420659505;-20,37222853785821;9,61606475264748;-20,37222853785821;0,6412305420659505;9,61606475264748;73,27494125186927;-428,0526139103366;214,45356608783226
12:29:14.414;0;Wrist;1;4952;10,57;-3,8079043416394542;-21,838923306985688;10,10775513473922;-21,838923306985688;-3,8079043416394542;10,10775513473922;73,03079317606128;-415,3569139683218;224,58571123386335
12:29:14.414;0;Wrist;1;4953;10,57;-8,255843340861233;-23,241018021179844;12,198932042909025;-23,241018021179844;-8,255843340861233;12,198932042909025;70,49775688955351;-403,6072878200629;209,7231971190527
12:29:14.415;0;Wrist;1;4954;9,98;-10,991839159825433;-24,47562524796289;13,140440458388012;-24,47562524796289;-10,991839159825433;13,140440458388012;65,91998046815394;-393,6582537308878;173,10098574785607
12:29:14.415;0;Wrist;1;4955;9,98;-11,674941633350628;-26,68523781548509;10,110147976622821;-26,68523781548509;-11,674941633350628;10,110147976622821;49,92828150273141;-381,4203314310129;119,69359416486098
12:29:14.415;0;Wrist;1;4956;9,98;-9,879256378368481;-29,778937269203773;4,403674523911252;-29,778937269203773;-9,879256378368481;4,403674523911252;26,490066225165563;-351,05441450239573;58,38190862758263
12:29:14.415;0;Wrist;1;4957;9,98;-5,097543355357525;-32,674043244727926;1,6102541953413496;-32,674043244727926;-5,097543355357525;1,6102541953413496;5,859553819391461;-299,9664296395764;4,547257911923582
12:29:14.416;0;Wrist;1;4958;9,98;0;-34,065370647297584;2,546977284691916;-34,065370647297584;0,239265114291818;2,546977284691916;-10,315256202887051;-251,62511062959686;-26,73421430097354
12:29:14.417;0;Wrist;1;4959;9,87;3,4346508110293894;-34,723349711600086;2,0660542142246774;-34,723349711600086;3,4346508110293894;2,0660542142246774;-18,951994384594258;-214,1178624835963;-35,706656086916716
12:29:14.417;0;Wrist;1;4960;9,87;4,595086615344707;-34,628841517380295;-2,674984073152867;-34,628841517380295;4,595086615344707;-2,674984073152867;-12,085329752494888;-181,95135349589526;-28,626361888485366
12:29:14.417;0;Wrist;1;4961;9,87;5,385857913449507;-33,74236274300363;-5,9911987479781486;-33,74236274300363;5,385857913449507;-5,9911987479781486;5,249183629871517;-144,3220313119907;-10,22370067445906
12:29:14.417;0;Wrist;1;4962;9,87;4,3462510872219005;-32,42521057771538;-7,012860690633869;-32,42521057771538;4,3462510872219005;-7,012860690633869;16,3274025696585;-104,09863582262642;16,693624683370466
12:29:14.417;0;Wrist;1;4963;9,87;0;-32,94561220130009;-6,374022930845057;-32,94561220130009;-0,363682967762917;-6,374022930845057;21,63762321848201;-72,17627491073335;39,76561784722434
12:29:14.462;0;Mov;1;24211;9,59;-15,479256950590534;4,914505733664968;29,716727195043795;4,914505733664968;-15,479256950590534;29,716727195043795;-66,71346171452986;91,83019501327556;111,42307809686575
12:29:14.462;0;Mov;1;24212;9,59;-9,860115550706503;6,487673860133671;17,24503311258278;6,487673860133671;-9,860115550706503;17,24503311258278;-22,91940061647389;2,3194067201757864;74,12945951719718
12:29:14.462;0;Mov;1;24213;9,59;-5,981627857295449;7,03559078112125;10,557573168126469;7,03559078112125;-5,981627857295449;10,557573168126469;10,22370067445906;-37,537766655476545;62,74605548265023
12:29:14.462;0;Mov;1;24214;9,59;-5,315274800103763;7,100192266609699;9,04422132023072;7,100192266609699;-5,315274800103763;9,04422132023072;21,027253028962065;-50,874355296487316;64,48561052278207
12:29:14.462;0;Mov;1;24215;9,59;-6,992522965178381;7,541636783959471;9,473702581865902;7,541636783959471;-6,992522965178381;9,473702581865902;21,668141727958005;-57,83257545701468;67,69005401776177
12:29:14.470;0;Wrist;1;4964;10,07;-1,5851313821832942;-33,80098498489334;-6,718564504684591;-33,80098498489334;-1,5851313821832942;-6,718564504684591;29,69450972014527;-39,67406231879635;43,91613513595996
12:29:14.470;0;Wrist;1;4965;10,07;-1,5001922904522844;-33,181287575914794;-7,676821382793665;-33,181287575914794;-1,5001922904522844;-7,676821382793665;8,362071596423231;1,3428144169438765;33,295693838312935
12:29:14.470;0;Wrist;1;4966;10,07;-2,1330485415967284;-31,551891003143407;-5,6514419042023984;-31,551891003143407;-2,1330485415967284;-5,6514419042023984;-12,970366527298808;36,19495223853267;15,533921323282572
12:29:14.470;0;Wrist;1;4967;10,07;0;-28,51441999572741;-4,340269459364604;-28,51441999572741;0,4845118564409314;-4,340269459364604;-11,688589129306925;60,73183385723441;-2,2583697012237924
12:29:14.470;0;Wrist;1;4968;10,07;1,2980132450331126;-25,02713095492416;-4,753001781517991;-25,02713095492416;1,2980132450331126;-4,753001781517991;-9,765923032319101;79,98901333658864;-12,72621845149083
12:29:14.493;0;Mov;1;24216;9,71;-8,771459280678732;8,148174039429914;10,06468684194464;8,148174039429914;-8,771459280678732;10,06468684194464;29,969176305429244;-62,74605548265023;67,4153874324778
12:29:14.493;0;Mov;1;24217;9,71;-9,337321085238196;8,899466307565538;9,192566072573015;8,899466307565538;-9,337321085238196;9,192566072573015;42,695394756920074;-64,24146244697408;62,34931485946226
12:29:14.493;0;Mov;1;24218;9,71;-8,850416386913663;8,801367419965208;9,145908993804742;8,801367419965208;-8,850416386913663;9,145908993804742;51,54576250495926;-61,9830927457503;52,82753990295114
12:29:14.493;0;Mov;1;24219;9,71;-8,635077784051028;7,864644688253426;11,241871585741752;7,864644688253426;-8,635077784051028;11,241871585741752;52,52235480819117;-62,227240821558276;44,34339426862392
12:29:14.493;0;Mov;1;24220;9,71;-9,023883594775231;6,219696550645467;15,632386432996613;6,219696550645467;-9,023883594775231;15,632386432996613;45,10635700552385;-64,0583513901181;34,48591570787683
12:29:14.530;0;Wrist;1;4969;10,19;1,528904128009888;-26,844349879451887;-8,431702436902981;-26,844349879451887;1,528904128009888;-8,431702436902981;-5,005035554063539;100,86367381817072;-22,461622974333935
12:29:14.530;0;Wrist;1;4970;10,19;-8,669771607104709;-29,892588198492387;-37,04063158055361;-29,892588198492387;-8,669771607104709;-37,04063158055361;-26,429029206213567;308,3895382549516;-84,26160466322825
12:29:14.530;0;Wrist;1;4971;10,19;-2,4309335135196997;-11,55889786217841;8,900662251655628;-11,55889786217841;-2,4309335135196997;8,900662251655628;-104,06811731315042;297,7996154667806;-170,7205420087283
12:29:14.530;0;Wrist;1;4972;10,19;14,065199934385205;12,592523537400433;30,112712485122227;12,592523537400433;14,065199934385205;30,112712485122227;-66,49983214819788;370,5252235480819;-136,05151524399548
12:29:14.530;0;Wrist;1;4973;10,19;6,823840964232307;-5,5688955351420635;24,95056573686941;-5,5688955351420635;6,823840964232307;24,95056573686941;-33,845027008880884;539,2010254219184;-48,34131900997955
12:29:14.553;0;Mov;1;24221;9,96;-10,807605594042787;4,189532341990417;21,93941503646962;4,189532341990417;-10,807605594042787;21,93941503646962;37,04947050386059;-69,21597949156163;18,341624195074314
12:29:14.554;0;Mov;1;24222;9,96;-14,541337321085239;4,04956205938902;27,515488143559068;4,04956205938902;-14,541337321085239;27,515488143559068;45,13687551499985;-83,43760490737633;-5,920590838343455
12:29:14.554;0;Mov;1;24223;9,96;-16,721043656727804;4,290023594622639;28,512028107547227;4,290023594622639;-16,721043656727804;28,512028107547227;85,66545609912411;-106,69270912808618;-38,514358958708456
12:29:14.554;0;Mov;1;24224;9,96;-12,228840182195501;5,097543355357525;23,755438016907256;5,097543355357525;-12,228840182195501;23,755438016907256;134,40351573229162;-140,1409955137791;-72,6950895718253
12:29:14.554;0;Mov;1;24225;9,96;-5,664601580858791;6,970989295632801;17,65178380687887;6,970989295632801;-5,664601580858791;17,65178380687887;143,6201055940428;-166,2038026062807;-89,60234382152775
12:29:14.560;0;Wrist;1;4974;10,05;11,398589854121525;-17,106259727774894;26,91014778588214;-17,106259727774894;11,398589854121525;26,91014778588214;-176,48854029969175;553,636280404065;-8,301034577471237
12:29:14.560;0;Wrist;1;4975;10,05;-9,830207411420027;-3,0135442575609606;10,971502388073366;-3,0135442575609606;-9,830207411420027;10,971502388073366;-202,49031037324136;466,933194982757;-12,207403790398876
12:29:14.561;0;Wrist;1;4976;10,05;-15,848921933652761;-10,222602008117924;16,0690462202826;-10,222602008117924;-15,848921933652761;16,0690462202826;-118,77803888058108;436,8114261299478;-23,010956144901883
12:29:14.561;0;Wrist;1;4977;10,05;15,306985686819056;-22,75052453688162;16,24610126041444;-22,75052453688162;15,306985686819056;16,24610126041444;-61,708426160466324;343,6384166997284;-24,414807580797753
12:29:14.561;0;Wrist;1;4978;10,05;3,7409102526932583;-8,950908116397596;12,42623390148625;-8,950908116397596;3,7409102526932583;12,42623390148625;-85,9096041749321;142,76558732871487;-24,292733542893764
12:29:14.642;0;Mov;1;24226;10,08;-2,1868831923123873;8,486733985412153;13,756548127689443;8,486733985412153;-2,1868831923123873;13,756548127689443;96,43848994415113;-171,36143070772422;-88,32056642353588
12:29:14.642;0;Mov;1;24227;10,08;-1,5588122672963654;8,723606257820368;12,46810529648732;8,723606257820368;-1,5588122672963654;12,46810529648732;32,34962004455702;-169,04202398754845;-76,47938474684896
12:29:14.642;0;Mov;1;24228;10,08;-3,252809371852779;7,498568968016602;15,121555223242897;7,498568968016602;-3,252809371852779;15,121555223242897;-11,963255714590899;-172,9483932004761;-58,22931608020264
