Frecuencia (Hz);100
time;timespan;canal;id;sample;gap;accX;accY;accZ;rawAccX;rawAccY;rawAccZ;rawGirX;rawGirY;rawGirZ
12:28:36.151;0;Wrist;1;3399;12,5;0;0;0;0,3935911070493942;0,2476394052133244;-0,12441786092190694;-4,4557023834955904;3,662221137119663;-3,8758507034516434
12:28:36.151;0;Wrist;1;3400;12,5;0;0;0;0,3194189395008698;0,18423414694566942;-0,04187139500106815;-4,760887478255562;3,936887722403638;-4,547257911923582
12:28:36.151;0;Wrist;1;3401;12,5;0;0;0;0,20217903051755579;0,12681051653530992;0,058619954491657;-4,638813440351573;3,9063692129276406;-4,516739402447585
12:28:36.151;0;Wrist;1;3402;12,5;0;0;0;0,21414228623214668;0,052638326634361556;0,06460158234895245;-4,0284432508316295;3,173924985503708;-3,967406231879635
12:28:36.152;0;Wrist;1;3403;12,5;0;0;0;0,3146336431756798;0,16270028367908262;-0,013159581658590389;-3,5401470992156745;2,7771843623157446;-3,357036042359691
12:28:36.153;0;Mov;1;22641;11,99;0;0;0;0,10408032918742562;-0,2464430736812189;-0,07536851398224585;-3,1128879665517135;-4,272591326639607;-4,547257911923582
12:28:36.154;0;Mov;1;22642;11,99;0;0;0;0,03947874311306917;-0,24285409398651844;-0,04904935066506508;-2,5025177770317697;-4,058961760307627;-4,058961760307627
12:28:36.154;0;Mov;1;22643;11,99;0;0;0;0,06819056204365291;-0,20576799531064027;-0,05024567474636257;-1,922666096987823;-4,24207281716361;-3,6011841181676685
12:28:36.154;0;Mov;1;22644;11,99;0;0;0;0,13039949623001038;-0,1866267951082644;-0,06699423051154745;-1,403851435895871;-4,303109836115604;-3,173924985503708
12:28:36.154;0;Mov;1;22645;11,99;0;0;0;0,12681051653530992;-0,22371287888252664;-0,05742363041035951;-0,9155552842799157;-3,662221137119663;-2,685628833887753
12:28:36.156;0;Mov;1;22646;10,84;0;0;0;0,040675070919770656;-0,25720999786370435;0;-0,45777764213995786;-2,9602954191717274;-2,1362956633198036
12:28:36.156;0;Mov;1;22647;10,84;0;0;0;0,020337535459885328;-0,2129459547000412;0,027515489261180266;-0,12207403790398877;-3,021332438123722;-1,5564439832758568
12:28:36.156;0;Mov;1;22648;10,84;0;0;0;0,22849819010933256;-0,1315958128604999;-0,027515489261180266;0,030518509475997192;-3,051850947599719;-1,1291848506118962
12:28:36.156;0;Mov;1;22649;10,84;0;0;0;0,39957273490668965;-0,13757744071779535;-0,119632557145909;0,27466658528397475;-1,8311105685598315;-0,793481246375927
12:28:36.156;0;Mov;1;22650;10,84;0;0;0;0,2488357218438139;-0,16987822816686757;-0,10527665326872311;0,4272591326639607;0,7019257179479355;0
12:28:36.157;0;Wrist;1;3404;11,23;0;0;0;0,19500107112815485;0,1914120914334544;0,06340525826765496;-3,1128879665517135;2,8992584002197335;-3,173924985503708
12:28:36.157;0;Wrist;1;3405;11,23;0;0;0;0,1339884610230949;0,119632557145909;0,12202521275931195;-2,9297769096957307;2,166814172795801;-2,7466658528397474
12:28:36.157;0;Wrist;1;3406;11,23;0;0;0;0,1770561875562685;0,17346720786156805;0,07417218990094836;-2,4414807580797753;1,1291848506118962;-1,922666096987823
12:28:36.157;0;Wrist;1;3407;11,23;0;0;0;0,1985900508228553;0,1890194432708594;0,05144199882766007;-2,380443739127781;0,5188146610919523;-1,403851435895871
12:28:36.157;0;Wrist;1;3408;11,23;0;0;0;0,21653493439474167;0,17107455969897306;0,025122837373181287;-2,5025177770317697;-0,061037018951994385;-0,9765923032319102
12:28:36.159;0;Wrist;1;3409;10,14;0;0;0;0,27635121296769616;0,20457167868015075;-0,025122837373181287;-2,5025177770317697;-0,7324442274239327;-0,6714072084719382
12:28:36.159;0;Wrist;1;3410;10,14;0;0;0;0,3170262764366588;0,1818414838814585;-0,04546037097036462;-2,71614734336375;-1,0071108127079074;-0,4882961516159551
12:28:36.159;0;Wrist;1;3411;10,14;0;0;0;0,28831446868228705;0,119632557145909;-0,0239265114291818;-2,685628833887753;-1,098666341135899;-0,21362956633198035
12:28:36.159;0;Wrist;1;3412;10,14;0;0;0;0,1914120914334544;0,07297585836884289;0,07536851398224585;-2,197332682271798;-1,3122959074678793;0
12:28:36.159;0;Wrist;1;3413;10,14;0;0;0;0,14954069643238624;-0,014355907602589877;0,1315958128604999;-1,3733329264198737;-1,8616290780358287;0,8239997558519242
12:28:36.160;0;Mov;1;22651;9,93;0;0;0;0,117239908983314;-0,1507370279644917;-0,03708609495047418;0,5493331705679495;2,1057771538438064;0,7324442274239327
12:28:36.160;0;Mov;1;22652;9,93;0;0;0;0,16389660030957212;-0,1315958128604999;-0,0466566987770661;0,793481246375927;2,533036286507767;1,098666341135899
12:28:36.161;0;Mov;1;22653;9,93;0;0;0;0,0023926511894857296;-0,0945097216354297;0,05383465071565905;0,6103701895199438;2,8992584002197335;1,5259254737998595
12:28:36.161;0;Mov;1;22654;9,93;0;0;0;0,07895748622613834;-0,06579790643024995;0,01674855762788686;0,36622211371196634;2,71614734336375;1,6174810022278512
12:28:36.161;0;Mov;1;22655;9,93;0;0;0;0,0011963255947428648;0,009570604757942918;0,031104465230476736;0,061037018951994385;2,8687398907437363;1,7090365306558428
12:28:36.189;0;Wrist;1;3414;9,78;0;0;0;0,16509293184167761;0,0358897671437727;0,12681051653530992;-0,09155552842799158;-2,380443739127781;1,8311105685598315
12:28:36.189;0;Wrist;1;3415;9,78;0;0;0;0,16270028367908262;0,038282419031771674;0,14595171673768578;0,9460737937559129;-3,2654805139316996;2,71614734336375
12:28:36.189;0;Wrist;1;3416;9,78;0;0;0;0,1507370279644917;0,05503097852236053;0,12441786092190694;2,1362956633198036;-3,9979247413556322;3,6011841181676685
12:28:36.189;0;Wrist;1;3417;9,78;0;0;0;0,15911130398438214;0,12681051653530992;0,09690236979802469;2,7771843623157446;-4,791405987731559;4,364146855067599
12:28:36.189;0;Wrist;1;3418;9,78;0;0;0;0,17825251908837397;0,1387737722499008;0,07895748622613834;3,1434064760277107;-5,798516800439467;4,852443006683553
12:28:36.217;0;Mov;1;22656;10,05;0;0;0;-0,08493911408343378;0,0466566987770661;0,0933133975541322;-0,45777764213995786;2,2583697012237924;1,4343699453718681
12:28:36.217;0;Mov;1;22657;10,05;0;0;0;-0,010766930701942408;0,04546037097036462;0,05503097852236053;-1,1291848506118962;1,4343699453718681;0,793481246375927
12:28:36.217;0;Mov;1;22658;10,05;0;0;0;0,0119632557145909;0,02990813928647725;0,025122837373181287;-2,166814172795801;0,8239997558519242;0,061037018951994385
12:28:36.217;0;Mov;1;22659;10,05;0;0;0;0,04546037097036462;-0,08852809377813425;0,0011963255947428648;-2,8687398907437363;0,3051850947599719;-0,4272591326639607
12:28:36.217;0;Mov;1;22660;10,05;0;0;0;0,03947874311306917;-0,16509293184167761;0,0011963255947428648;-2,838221381267739;0,27466658528397475;-0,5188146610919523
12:28:36.242;0;Mov;1;22661;9,66;0;0;0;0,05503097852236053;-0,1794488357188635;-0,01674855762788686;-2,8687398907437363;0;-0,09155552842799158
12:28:36.242;0;Mov;1;22662;9,66;0;0;0;-0,0346934430624752;-0,1184362330646115;0,015552232615238368;-2,685628833887753;0,061037018951994385;0,21362956633198035
12:28:36.242;0;Mov;1;22663;9,66;0;0;0;0,040675070919770656;-0,08852809377813425;-0,0023926511894857296;-2,838221381267739;-0,3051850947599719;0,15259254737998595
12:28:36.242;0;Mov;1;22664;9,66;0;0;0;0,09929502541142765;-0,14834437980189671;-0,031104465230476736;-2,410962248603778;-0,4272591326639607;0
12:28:36.242;0;Mov;1;22665;9,66;0;0;0;0,004785302378971459;-0,28352917235709707;0,0023926511894857296;-1,6174810022278512;-0,18311105685598317;0,061037018951994385
12:28:36.250;0;Wrist;1;3419;9,99;0;0;0;0,18303781541356395;0,14714804826979125;0,0693868861249504;3,0823694570757163;-6,74459059419538;5,1576281014435255
12:28:36.250;0;Wrist;1;3420;9,99;0;0;0;0,21892758255733666;0,05383465071565905;0,06819056204365291;3,5401470992156745;-7,4159978026673175;5,829035309915464
12:28:36.251;0;Wrist;1;3421;9,99;0;0;0;0,236872466129223;0,1064729773500206;0,0705832102062479;4,760887478255562;-7,965330973235267;6,378368480483413
12:28:36.251;0;Wrist;1;3422;9,99;0;0;0;0,239265114291818;0,117239908983314;0,0598162785729545;5,920590838343455;-8,331553086947233;6,561479537339396
12:28:36.251;0;Wrist;1;3423;9,99;0;0;0;0,2524247015385144;0,12681051653530992;0,0717795342875454;6,225775933103427;-8,758812219611194;6,74459059419538
12:28:36.279;0;Wrist;1;3424;9,66;0;0;0;0,3517197120483261;0,14236275194460127;-0,028711815205179753;6,347849971007416;-9,094515823847164;6,591998046815394
12:28:36.279;0;Wrist;1;3425;9,66;0;0;0;0,3900021422563097;0,17346720786156805;-0,08733176969683676;7,019257179479355;-8,57570116275521;6,225775933103427
12:28:36.279;0;Wrist;1;3426;9,66;0;0;0;0,40316172950300605;0,25720999786370435;-0,07895748622613834;7,446516312143315;-7,93481246375927;5,523850215155492
12:28:36.279;0;Wrist;1;3427;9,66;0;0;0;0,43665883358256785;0,32540056735816525;-0,0837427900021363;7,38547929319132;-7,17184972685934;4,486220892971588
12:28:36.279;0;Wrist;1;3428;9,66;0;0;0;0,417517618478576;0,3935911070493942;-0,117239908983314;7,080294198431349;-5,981627857295449;3,2349620044557024
12:28:36.302;0;Mov;1;22666;9,85;0;0;0;0,009570604757942918;-0,2667806203173162;0;-0,793481246375927;-0,3357036042359691;0,5493331705679495
12:28:36.302;0;Mov;1;22667;9,85;0;0;0;0,04546037097036462;-0,2153386028626362;0,019141209515885837;-0,030518509475997192;-0,36622211371196634;0,9460737937559129
12:28:36.303;0;Mov;1;22668;9,85;0;0;0;-0,004785302378971459;-0,1914120914334544;0,0933133975541322;0,5493331705679495;0;1,1597033600878932
12:28:36.303;0;Mov;1;22669;9,85;0;0;0;0,025122837373181287;-0,16150395214697713;0,0346934430624752;0,9765923032319102;0,09155552842799158;1,1291848506118962
12:28:36.304;0;Mov;1;22670;9,85;0;0;0;0,1387737722499008;-0,15911130398438214;-0,02273018548518231;1,098666341135899;0,3051850947599719;0,9765923032319102
12:28:36.339;0;Wrist;1;3429;9,83;0;0;0;0,4055543627639851;0,34932707878734703;-0,1315958128604999;5,920590838343455;-4,760887478255562;2,1057771538438064
12:28:36.340;0;Wrist;1;3430;9,83;0;0;0;0,4223029446069979;0,32540056735816525;-0,14595171673768578;4,486220892971588;-3,662221137119663;1,2207403790398876
12:28:36.340;0;Wrist;1;3431;9,83;0;0;0;0,3660756308271279;0,31582994490455335;-0,1292031646979049;3,2654805139316996;-2,3499252296517836;0,3051850947599719
12:28:36.340;0;Wrist;1;3432;9,83;0;0;0;0,354112375112537;0,2823328408249916;-0,08733176969683676;2,197332682271798;-1,1902218695638904;-0,36622211371196634
12:28:36.340;0;Wrist;1;3433;9,83;0;0;0;0,34813074725524157;0,31224098011146884;-0,10168767357402264;1,1291848506118962;-0,6103701895199438;-0,9460737937559129
12:28:36.363;0;Mov;1;22671;9,98;0;0;0;0,00598162785729545;-0,20457167868015075;0,052638326634361556;1,3733329264198737;0,9765923032319102;1,1597033600878932
12:28:36.363;0;Mov;1;22672;9,98;0;0;0;-0,020337535459885328;-0,22849819010933256;0,05503097852236053;1,9531846064638203;1,098666341135899;1,3428144169438765
12:28:36.363;0;Mov;1;22673;9,98;0;0;0;0,03708609495047418;-0,239265114291818;-0,02990813928647725;2,380443739127781;1,098666341135899;1,5564439832758568
12:28:36.363;0;Mov;1;22674;9,98;0;0;0;0,12561418500320445;-0,20696432684274574;-0,0358897671437727;3,051850947599719;1,1291848506118962;1,922666096987823
12:28:36.363;0;Mov;1;22675;9,98;0;0;0;0,03947874311306917;-0,11006195704472106;0,025122837373181287;3,47911008026368;1,586962492751854;2,3499252296517836
12:28:36.397;0;Mov;1;22676;9,79;0;0;0;0,03349711525577372;-0,07297585836884289;0,007177953801294938;3,448591570787683;1,4343699453718681;2,288888210699789
12:28:36.397;0;Mov;1;22677;9,79;0;0;0;0,0717795342875454;-0,04546037097036462;0,02273018548518231;3,2654805139316996;1,1597033600878932;2,166814172795801
12:28:36.397;0;Mov;1;22678;9,79;0;0;0;-0,09690236979802469;-0,027515489261180266;0,06699423051154745;2,9297769096957307;1,3122959074678793;1,8311105685598315
12:28:36.397;0;Mov;1;22679;9,79;0;0;0;-0,015552232615238368;0,04546037097036462;0,05742363041035951;2,533036286507767;0,5493331705679495;0,8239997558519242
12:28:36.397;0;Mov;1;22680;9,79;0;0;0;0,1794488357188635;0,028711815205179753;-0,10886562551261558;2,1362956633198036;0,3051850947599719;0,21362956633198035
12:28:36.410;0;Wrist;1;3434;10,11;0;0;0;0,32300790429395426;0,33018586368335523;-0,1531296761270867;0,21362956633198035;-0,030518509475997192;-1,403851435895871
12:28:36.410;0;Wrist;1;3435;10,11;0;0;0;0,34813074725524157;0,3050630207220679;-0,15671865582178715;-1,3428144169438765;0,21362956633198035;-1,7090365306558428
12:28:36.410;0;Wrist;1;3436;10,11;0;0;0;0,3349711600085452;0,22132023071993165;-0,0945097216354297;-2,563554795983764;0,6103701895199438;-2,1057771538438064
12:28:36.410;0;Wrist;1;3437;10,11;0;0;0;0,3469344157231361;0,20576799531064027;-0,09809870133013016;-2,9908139286477247;1,0681478316599018;-2,5025177770317697
12:28:36.410;0;Wrist;1;3438;10,11;0;0;0;0,34573808419103064;0,17107455969897306;-0,09211707347283471;-3,295999023407697;1,5564439832758568;-2,9908139286477247
12:28:36.430;0;Wrist;1;3439;9,74;0;0;0;0,28831446868228705;0,2009826989854503;-0,06220893046095347;-3,5096285897396773;2,2583697012237924;-3,448591570787683
12:28:36.430;0;Wrist;1;3440;9,74;0;0;0;0,3014740559289834;0,234479817966628;-0,13997008888039034;-3,69273964659566;2,4719992675557725;-3,47911008026368
12:28:36.431;0;Wrist;1;3441;9,74;0;0;0;0,3660756308271279;0,15193334459498123;-0,12082888867801446;-4,272591326639607;2,533036286507767;-3,5401470992156745
12:28:36.431;0;Wrist;1;3442;9,74;0;0;0;0,33736382307275614;0,1292031646979049;-0,05383465071565905;-4,303109836115604;3,1128879665517135;-3,8758507034516434
12:28:36.431;0;Wrist;1;3443;9,74;0;0;0;0,25362103307061984;0,1292031646979049;-0,00598162785729545;-4,0284432508316295;3,4180730613116856;-3,845332193975646
12:28:36.454;0;Mov;1;22681;9,89;0;0;0;0,1339884610230949;-0,04904935066506508;-0,03230079117447623;1,7700735496078372;0,5493331705679495;-0,061037018951994385
12:28:36.455;0;Mov;1;22682;9,89;0;0;0;0,14475540010719626;-0,09690236979802469;-0,038282419031771674;1,281777397991882;1,1291848506118962;-0,15259254737998595
12:28:36.455;0;Mov;1;22683;9,89;0;0;0;0,14595171673768578;-0,05742363041035951;-0,05742363041035951;0,9460737937559129;1,6174810022278512;0
12:28:36.455;0;Mov;1;22684;9,89;0;0;0;0,21892758255733666;-0,025122837373181287;-0,05503097852236053;0,6714072084719382;2,2278511917477952;0
12:28:36.455;0;Mov;1;22685;9,89;0;0;0;0,12800683316579944;-0,1674855800042726;-0,040675070919770656;0,3357036042359691;3,0823694570757163;0
12:28:36.489;0;Wrist;1;3444;9,86;0;0;0;0,3146336431756798;0,06699423051154745;-0,10168767357402264;-3,814813684499649;3,3875545518356884;-3,6317026276436657
12:28:36.489;0;Wrist;1;3445;9,86;0;0;0;0,4857081879730369;0,03230079117447623;-0,17466353939367352;-3,3875545518356884;3,69273964659566;-3,2349620044557024
12:28:36.490;0;Wrist;1;3446;9,86;0;0;0;0,3134373116435743;0,15791497245227668;-0,02273018548518231;-2,533036286507767;4,913480025635548;-3,5706656086916717
12:28:36.490;0;Wrist;1;3447;9,86;0;0;0;0,1507370279644917;0,12202521275931195;0,08852809377813425;-2,4414807580797753;4,943998535111545;-3,326517532883694
12:28:36.490;0;Wrist;1;3448;9,86;0;0;0;0,3660756308271279;0,07417218990094836;-0,08015381775824382;-1,9531846064638203;4,150517288735618;-3,0823694570757163
12:28:36.515;0;Mov;1;22686;10,02;0;0;0;-0,10168767357402264;-0,20457167868015075;0,040675070919770656;0,5798516800439466;3,6317026276436657;0,36622211371196634
12:28:36.515;0;Mov;1;22687;10,02;0;0;0;0;-0,14595171673768578;-0,004785302378971459;1,0681478316599018;2,8992584002197335;0,45777764213995786
12:28:36.515;0;Mov;1;22688;10,02;0;0;0;0,15552232428968168;-0,18064516725096896;-0,04306772280776963;1,3122959074678793;2,71614734336375;0,3967406231879635
12:28:36.516;0;Mov;1;22689;10,02;0;0;0;0,16030763551648763;-0,20576799531064027;-0,03708609495047418;1,5259254737998595;3,4180730613116856;0,9460737937559129
12:28:36.516;0;Mov;1;22690;10,02;0;0;0;0,0933133975541322;-0,12202521275931195;0,010766930701942408;1,8921475875118259;4,119998779259621;1,2512588885158848
12:28:36.548;0;Mov;1;22691;9,84;0;0;0;0,03349711525577372;-0,09809870133013016;0,0119632557145909;2,0142216254158147;4,4557023834955904;1,0376293221839046
12:28:36.549;0;Mov;1;22692;9,84;0;0;0;0,014355907602589877;-0,07895748622613834;0,013159581658590389;2,1057771538438064;4,394665364543596;0,8850367748039186
12:28:36.549;0;Mov;1;22693;9,84;0;0;0;-0,0011963255947428648;-0,027515489261180266;0,02273018548518231;2,1362956633198036;3,8758507034516434;0,640888698995941
12:28:36.549;0;Mov;1;22694;9,84;0;0;0;-0,04546037097036462;0,019141209515885837;0,019141209515885837;1,9531846064638203;3,3875545518356884;0,18311105685598317
12:28:36.549;0;Mov;1;22695;9,84;0;0;0;0,0717795342875454;0,07656483806354335;-0,013159581658590389;1,7700735496078372;2,563554795983764;-0,4272591326639607
12:28:36.551;0;Wrist;1;3449;9,99;0;0;0;0,41871395001068146;0,1292031646979049;-0,1064729773500206;-1,1291848506118962;4,821924497207556;-3,021332438123722
12:28:36.551;0;Wrist;1;3450;9,99;0;0;0;0,19739371929074984;0,20457167868015075;0,020337535459885328;-0,7629627368999298;5,706961272011475;-3,5401470992156745
12:28:36.551;0;Wrist;1;3451;9,99;0;0;0;0,08852809377813425;0,1292031646979049;0,08135014183954131;-0,9765923032319102;5,188146610919523;-3,5096285897396773
12:28:36.551;0;Wrist;1;3452;9,99;0;0;0;0,22132023071993165;0,11125828112601856;0,04187139500106815;-0,6103701895199438;4,0284432508316295;-2,7771843623157446
12:28:36.551;0;Wrist;1;3453;9,99;0;0;0;0,23208716980403302;0,1818414838814585;0,10886562551261558;-0,3051850947599719;3,662221137119663;-2,2583697012237924
12:28:36.579;0;Wrist;1;3454;9,76;0;0;0;0,25362103307061984;0,16150395214697713;0,08733176969683676;-0,030518509475997192;3,5706656086916717;-2,075258644367809
12:28:36.579;0;Wrist;1;3455;9,76;0;0,5766289373645741;0;0,5766289373645741;0,0717795342875454;-0,13757744071779535;0,061037018951994385;3,814813684499649;-2,166814172795801
12:28:36.579;0;Wrist;1;3456;9,76;0;0,5527024259353923;0;0,5527024259353923;0,06220893046095347;-0,0957060457167272;1,2512588885158848;5,981627857295449;-2,8992584002197335
12:28:36.579;0;Wrist;1;3457;9,76;0;0;0;0,1914120914334544;0,16389660030957212;0,119632557145909;2,075258644367809;7,751701406903287;-3,326517532883694
12:28:36.579;0;Wrist;1;3458;9,76;0;0;0;-0,013159581658590389;0,3026703874610889;0,18303781541356395;2,1057771538438064;6,8666646320993685;-3,2349620044557024
12:28:36.602;0;Mov;1;22696;9,88;0;0;0;0,06340525826765496;0,13638112408730582;0,007177953801294938;1,0681478316599018;2,1057771538438064;-1,0376293221839046
12:28:36.602;0;Mov;1;22697;9,88;0;0;0;-0,0478530228583636;0,09211707347283471;0,0478530228583636;0,18311105685598317;1,5564439832758568;-1,586962492751854
12:28:36.602;0;Mov;1;22698;9,88;0;0;0;-0,00837427881394343;0,01794488357188635;0,04306772280776963;0;0,3357036042359691;-2,3499252296517836
12:28:36.602;0;Mov;1;22699;9,88;0;0;0;0,007177953801294938;-0,06340525826765496;0,009570604757942918;-0,27466658528397475;-0,4882961516159551;-2,7771843623157446
12:28:36.602;0;Mov;1;22700;9,88;0;0;0;-0,004785302378971459;-0,058619954491657;0,013159581658590389;-0,6714072084719382;-1,3122959074678793;-2,71614734336375
12:28:36.662;0;Mov;1;22701;9,98;0;0;0;0,05024567474636257;-0,08015381775824382;-0,03708609495047418;-0,9765923032319102;-2,166814172795801;-2,5940733054597613
12:28:36.662;0;Mov;1;22702;9,98;0;0;0;0,06340525826765496;-0,11484726082071901;-0,04904935066506508;-1,1291848506118962;-2,7466658528397474;-2,166814172795801
12:28:36.662;0;Mov;1;22703;9,98;0;0;0;0,05742363041035951;-0,19380473959604938;-0,010766930701942408;-1,403851435895871;-2,6551103244117558;-1,8616290780358287
12:28:36.662;0;Mov;1;22704;9,98;0;0;0;0,020337535459885328;-0,2249092104146321;0,0466566987770661;-1,5259254737998595;-2,563554795983764;-1,2512588885158848
12:28:36.662;0;Mov;1;22705;9,98;0;0;0;0,04426404688906713;-0,1507370279644917;0,0957060457167272;-1,4343699453718681;-2,3194067201757864;-0,5188146610919523
12:28:36.670;0;Wrist;1;3459;10,19;0;0;0;0,06699423051154745;0,3050630207220679;0,13039949623001038;1,4343699453718681;4,913480025635548;-3,1434064760277107
12:28:36.670;0;Wrist;1;3460;10,19;0;0;0;0,3624866660340434;0,21653493439474167;-0,12800683316579944;0,3967406231879635;3,5096285897396773;-3,1434064760277107
12:28:36.670;0;Wrist;1;3461;10,19;0;0,6998504593035676;0;0,6998504593035676;0,12322153684060945;-0,3971801016457106;0,030518509475997192;3,9063692129276406;-3,7537766655476545
12:28:36.670;0;Wrist;1;3462;10,19;0;0,6484084716521195;0;0,6484084716521195;0,2009826989854503;-0,3098483170472579;-0,12207403790398877;6,317331461531419;-4,699850459303567
12:28:36.670;0;Wrist;1;3463;10,19;0;0;0;0,038282419031771674;0,3696645956202124;0,09211707347283471;-0,7629627368999298;8,239997558519242;-5,859553819391461
12:28:36.672;0;Wrist;1;3464;9,72;0;0;0;-0,1339884610230949;0,24046144582392345;0,1507370279644917;-2,288888210699789;6,683553575243385;-5,798516800439467
12:28:36.672;0;Wrist;1;3465;9,72;0;0;0;0,06699423051154745;0,13518479255520036;0,17346720786156805;-2,9908139286477247;4,66933194982757;-4,608294930875576
12:28:36.672;0;Wrist;1;3466;9,72;0;0;0;0,004785302378971459;0,25362103307061984;0,20696432684274574;-3,1128879665517135;3,845332193975646;-3,6317026276436657
12:28:36.672;0;Wrist;1;3467;9,72;0;0;0;-0,028711815205179753;0,22251656225203711;0,19978636745334483;-3,69273964659566;2,6551103244117558;-2,9297769096957307
12:28:36.672;0;Wrist;1;3468;9,72;0;0;0;0,11604358490201651;0,08135014183954131;0,15791497245227668;-3,69273964659566;1,5259254737998595;-1,9837031159398175
12:28:36.693;0;Mov;1;22706;9,81;0;0;0;0,015552232615238368;-0,1339884610230949;0,08493911408343378;-1,3733329264198737;-1,8616290780358287;-0,21362956633198035
12:28:36.693;0;Mov;1;22707;9,81;0;0;0;0,00598162785729545;-0,0717795342875454;0,11006195704472106;-1,3733329264198737;-1,4648884548478653;-0,27466658528397475
12:28:36.693;0;Mov;1;22708;9,81;0;0;0;-0,00598162785729545;-0,0957060457167272;0,11245460520731605;-1,586962492751854;-1,2207403790398876;-0,5188146610919523
12:28:36.693;0;Mov;1;22709;9,81;0;0;0;0,03708609495047418;-0,12681051653530992;0,0933133975541322;-1,6479995117038484;-1,0376293221839046;-0,8239997558519242
12:28:36.693;0;Mov;1;22710;9,81;0;0;0;0,09929502541142765;-0,13757744071779535;0,08972441785943175;-1,7090365306558428;-0,4882961516159551;-0,8850367748039186
12:28:36.731;0;Wrist;1;3469;9,81;0;0;0;0,17346720786156805;0,1985900508228553;0,07895748622613834;-3,1434064760277107;1,1597033600878932;-0,9460737937559129
12:28:36.731;0;Wrist;1;3470;9,81;0;0;0;0,17107455969897306;0,19380473959604938;0,10049134949272515;-3,2349620044557024;0,793481246375927;-0,5188146610919523
12:28:36.731;0;Wrist;1;3471;9,81;0;0;0;0,26199529418889433;0,13757744071779535;0,0693868861249504;-2,7466658528397474;0,8239997558519242;-0,21362956633198035
12:28:36.731;0;Wrist;1;3472;9,81;0;0;0;0,20935697500534073;0,18782311173875393;0,11365092928861355;-2,685628833887753;0,9155552842799157;-0,09155552842799158
12:28:36.731;0;Wrist;1;3473;9,81;0;0;0;0,08493911408343378;0,1507370279644917;0,15671865582178715;-2,3499252296517836;0,640888698995941;-0,061037018951994385
12:28:36.752;0;Mov;1;22711;9,9;0;0;0;0,10049134949272515;-0,1435590685750908;0,08493911408343378;-1,8311105685598315;0,45777764213995786;-0,9765923032319102
12:28:36.752;0;Mov;1;22712;9,9;0;0;0;0,04426404688906713;-0,15193334459498123;0,052638326634361556;-1,9531846064638203;1,2512588885158848;-0,7629627368999298
12:28:36.753;0;Mov;1;22713;9,9;0;0;0;0,0358897671437727;-0,1961974026602603;0,03349711525577372;-1,8616290780358287;1,8311105685598315;-0,6714072084719382
12:28:36.753;0;Mov;1;22714;9,9;0;0;0;-0,02273018548518231;-0,2596026609279153;0,038282419031771674;-1,3428144169438765;1,8616290780358287;-0,3051850947599719
12:28:36.753;0;Mov;1;22715;9,9;0;0;0;-0,026319163317180778;-0,2476394052133244;0,00837427881394343;-0,5188146610919523;1,4954069643238623;0,12207403790398877
12:28:36.792;0;Wrist;1;3474;9,92;0;0;0;0,14834437980189671;0,056227302603658026;0,1315958128604999;-1,7090365306558428;0;0,18311105685598317
12:28:36.792;0;Wrist;1;3475;9,92;0;0;0;0,15671865582178715;0,03230079117447623;0,11484726082071901;-0,7324442274239327;-0,6714072084719382;0,8850367748039186
12:28:36.792;0;Wrist;1;3476;9,92;0;0;0;0,1866267951082644;0,00837427881394343;0,07297585836884289;0,27466658528397475;-1,2207403790398876;1,6785180211798456
12:28:36.792;0;Wrist;1;3477;9,92;0;0;0;0,23208716980403302;0,025122837373181287;0,03947874311306917;1,3733329264198737;-1,6479995117038484;2,3499252296517836
12:28:36.792;0;Wrist;1;3478;9,92;0;0;0;0,2823328408249916;0,0478530228583636;0,0023926511894857296;2,2278511917477952;-2,1057771538438064;2,9297769096957307
12:28:36.813;0;Mov;1;22716;9,99;0;0;0;0,01794488357188635;-0,2703695851104007;-0,04187139500106815;0,15259254737998595;0,9765923032319102;0,4272591326639607
12:28:36.813;0;Mov;1;22717;9,99;0;0;0;0,0598162785729545;-0,22849819010933256;-0,0598162785729545;0,8850367748039186;0,6103701895199438;1,281777397991882
12:28:36.813;0;Mov;1;22718;9,99;0;0;0;0,0011963255947428648;-0,15193334459498123;-0,009570604757942918;1,4648884548478653;0,640888698995941;1,9837031159398175
12:28:36.813;0;Mov;1;22719;9,99;0;0;0;-0,040675070919770656;-0,04187139500106815;0,021533861403884816;1,73955504013184;0,3051850947599719;1,9837031159398175
12:28:36.813;0;Mov;1;22720;9,99;0;0;0;0,05742363041035951;-0,003588976900647469;-0,06340525826765496;1,73955504013184;-0,3051850947599719;1,5259254737998595
12:28:36.820;0;Wrist;1;3479;9,74;0;0;0;0,3170262764366588;0,07297585836884289;-0,05503097852236053;2,9602954191717274;-2,2583697012237924;3,1434064760277107
12:28:36.820;0;Wrist;1;3480;9,74;0;0;0;0,31582994490455335;0,07776116214484084;-0,0346934430624752;3,69273964659566;-2,1362956633198036;3,2654805139316996
12:28:36.820;0;Wrist;1;3481;9,74;0;0;0;0,32300790429395426;0,10168767357402264;-0,07656483806354335;4,089480269783624;-1,8616290780358287;3,2349620044557024
12:28:36.820;0;Wrist;1;3482;9,74;0;0;0;0,3732535902165288;0,1315958128604999;-0,09211707347283471;4,364146855067599;-1,6785180211798456;3,0823694570757163
12:28:36.820;0;Wrist;1;3483;9,74;0;0;0;0,33736382307275614;0,20816065837485123;-0,04904935066506508;4,608294930875576;-1,1597033600878932;2,685628833887753
12:28:36.842;0;Mov;1;22721;9,83;0;0;0;0,1064729773500206;-0,013159581658590389;-0,040675070919770656;1,7090365306558428;-0,5493331705679495;1,0681478316599018
12:28:36.843;0;Mov;1;22722;9,83;0;0;0;0,04187139500106815;-0,031104465230476736;0,00837427881394343;1,3122959074678793;-0,5188146610919523;0,8239997558519242
12:28:36.843;0;Mov;1;22723;9,83;0;0;0;0,052638326634361556;-0,04187139500106815;-0,019141209515885837;1,2512588885158848;-0,8850367748039186;0,5493331705679495
12:28:36.843;0;Mov;1;22724;9,83;0;0;0;0,07536851398224585;-0,1064729773500206;-0,01794488357188635;1,2512588885158848;-1,0681478316599018;0,3357036042359691
12:28:36.843;0;Mov;1;22725;9,83;0;0;0;0,03230079117447623;-0,12082888867801446;0,00598162785729545;1,1597033600878932;-1,1597033600878932;0,4272591326639607
12:28:36.879;0;Wrist;1;3484;9,82;0;0;0;0,3026703874610889;0,23208716980403302;-0,04306772280776963;4,394665364543596;-0,793481246375927;2,1057771538438064
12:28:36.879;0;Wrist;1;3485;9,82;0;0;0;0,290707131746498;0,2679769220461898;-0,028711815205179753;3,845332193975646;-0,4272591326639607;1,6479995117038484
12:28:36.879;0;Wrist;1;3486;9,82;0;0;0;0,2464430736812189;0,31104464857936337;-0,026319163317180778;3,051850947599719;-0,36622211371196634;1,0071108127079074
12:28:36.880;0;Wrist;1;3487;9,82;0;0;0;0,28831446868228705;0,2548173646027253;-0,058619954491657;2,166814172795801;-0,5188146610919523;0,3051850947599719
12:28:36.880;0;Wrist;1;3488;9,82;0;0;0;0,34813074725524157;0,24046144582392345;-0,09809870133013016;1,2207403790398876;-0,21362956633198035;-0,18311105685598317
12:28:36.903;0;Mov;1;22726;9,91;0;0;0;0,026319163317180778;-0,08972441785943175;0,0011963255947428648;1,2207403790398876;-1,4648884548478653;0,4882961516159551
12:28:36.903;0;Mov;1;22727;9,91;0;0;0;0,04306772280776963;-0,11365092928861355;-0,0239265114291818;1,4648884548478653;-1,8616290780358287;0,45777764213995786
12:28:36.903;0;Mov;1;22728;9,91;0;0;0;0,08015381775824382;-0,0837427900021363;-0,028711815205179753;1,7090365306558428;-2,1362956633198036;0,5798516800439466
12:28:36.903;0;Mov;1;22729;9,91;0;0;0;0,12082888867801446;-0,08493911408343378;-0,05742363041035951;2,075258644367809;-2,2583697012237924;0,7324442274239327
12:28:36.903;0;Mov;1;22730;9,91;0;0;0;0,1387737722499008;-0,0466566987770661;-0,014355907602589877;2,1057771538438064;-1,8921475875118259;0,8239997558519242
12:28:36.942;0;Wrist;1;3489;9,93;0;0;0;0,37564622347750787;0,24524674214911343;-0,07297585836884289;0,7324442274239327;0,4882961516159551;-0,7324442274239327
12:28:36.943;0;Wrist;1;3490;9,93;0;0;0;0,37205725868442335;0,236872466129223;-0,06699423051154745;0,36622211371196634;1,3428144169438765;-1,2207403790398876
12:28:36.943;0;Wrist;1;3491;9,93;0;0;0;0,32061527103297527;0,239265114291818;-0,06340525826765496;-0,15259254737998595;2,0142216254158147;-1,922666096987823
12:28:36.943;0;Wrist;1;3492;9,93;0;0;0;0,234479817966628;0,21174962316793572;0,003588976900647469;-0,6714072084719382;2,380443739127781;-2,288888210699789
12:28:36.943;0;Wrist;1;3493;9,93;0;0;0;0,21055330653744622;0,2009826989854503;0,0011963255947428648;-0,9460737937559129;2,410962248603778;-2,380443739127781
12:28:36.962;0;Mov;1;22731;9,99;0;0;0;0,11245460520731605;-0,026319163317180778;-0,0011963255947428648;1,7090365306558428;-1,4954069643238623;0,9155552842799157
12:28:36.962;0;Mov;1;22732;9,99;0;0;0;0,09690236979802469;-0,06220893046095347;-0,028711815205179753;1,4648884548478653;-1,2512588885158848;0,7629627368999298
12:28:36.963;0;Mov;1;22733;9,99;0;0;0;0,14714804826979125;-0,08733176969683676;-0,0358897671437727;1,3428144169438765;-0,9765923032319102;0,8545182653279214
12:28:36.963;0;Mov;1;22734;9,99;0;0;0;0,07417218990094836;-0,056227302603658026;0,01794488357188635;1,1291848506118962;-0,21362956633198035;0,8545182653279214
12:28:36.963;0;Mov;1;22735;9,99;0;0;0;0,00837427881394343;-0,1064729773500206;0,021533861403884816;1,0376293221839046;0,09155552842799158;0,640888698995941
12:28:36.971;0;Wrist;1;3494;9,77;0;0;0;0,2667806203173162;0,18543046357615894;-0,03708609495047418;-1,3428144169438765;2,288888210699789;-2,4719992675557725
12:28:36.971;0;Wrist;1;3495;9,77;0;0;0;0,2548173646027253;0,20217903051755579;-0,01794488357188635;-1,73955504013184;2,6245918149357585;-2,5940733054597613
12:28:36.971;0;Wrist;1;3496;9,77;0;0;0;0,17825251908837397;0,17585985602416304;0,05024567474636257;-1,8921475875118259;2,7771843623157446;-2,7466658528397474
12:28:36.971;0;Wrist;1;3497;9,77;0;0;0;0,15552232428968168;0,13279214439260537;0,08613544561553926;-1,9531846064638203;2,4719992675557725;-2,4414807580797753
12:28:36.971;0;Wrist;1;3498;9,77;0;0;0;0,1435590685750908;0,12202521275931195;0,11484726082071901;-1,8311105685598315;1,922666096987823;-1,9837031159398175
12:28:37.022;0;Mov;1;22736;10,06;0;0;0;0,2009826989854503;-0,12322153684060945;-0,026319163317180778;1,0681478316599018;-0,030518509475997192;0,6714072084719382
12:28:37.022;0;Mov;1;22737;10,06;0;0;0;0,09092074194072924;-0,13638112408730582;0,02990813928647725;0,8850367748039186;1,0681478316599018;1,0071108127079074
12:28:37.022;0;Mov;1;22738;10,06;0;0;0;-0,05383465071565905;-0,08972441785943175;0,06699423051154745;1,0376293221839046;1,5259254737998595;1,1597033600878932
12:28:37.022;0;Mov;1;22739;10,06;0;0;0;0,031104465230476736;-0,07536851398224585;0,04306772280776963;1,0071108127079074;1,0681478316599018;0,9765923032319102
12:28:37.022;0;Mov;1;22740;10,06;0;0;0;-0,003588976900647469;-0,11604358490201651;0,03947874311306917;0,8850367748039186;1,1902218695638904;0,8545182653279214
12:28:37.030;0;Wrist;1;3499;9,85;0;0;0;0,14714804826979125;0,10886562551261558;0,11245460520731605;-1,403851435895871;1,6174810022278512;-1,4648884548478653
12:28:37.030;0;Wrist;1;3500;9,85;0;0;0;0,1961974026602603;0,07895748622613834;0,05503097852236053;-1,0071108127079074;1,0071108127079074;-0,9460737937559129
12:28:37.030;0;Wrist;1;3501;9,85;0;0;0;0,27635121296769616;0,10288399765532014;0,003588976900647469;-0,6103701895199438;0,9155552842799157;-0,6103701895199438
12:28:37.030;0;Wrist;1;3502;9,85;0;0;0;0,20576799531064027;0,1914120914334544;0,056227302603658026;-0,27466658528397475;1,3733329264198737;-0,6103701895199438
12:28:37.030;0;Wrist;1;3503;9,85;0;0;0;0,2129459547000412;0,16868191153637807;0,06101260637965598;-0,24414807580797754;1,3122959074678793;-0,4882961516159551
12:28:37.052;0;Mov;1;22741;9,92;0;0;0;-0,08613544561553926;-0,13638112408730582;0,07656483806354335;1,0681478316599018;0,8545182653279214;0,9460737937559129
12:28:37.053;0;Mov;1;22742;9,92;0;0;0;-0,009570604757942918;-0,10527665326872311;0,06819056204365291;1,2207403790398876;0,15259254737998595;0,7324442274239327
12:28:37.053;0;Mov;1;22743;9,92;0;0;0;0,01794488357188635;-0,08733176969683676;0,052638326634361556;1,4343699453718681;-0,061037018951994385;0,4272591326639607
12:28:37.053;0;Mov;1;22744;9,92;0;0;0;-0,007177953801294938;-0,11365092928861355;0,05144199882766007;1,5259254737998595;-0,24414807580797754;0,36622211371196634
12:28:37.053;0;Mov;1;22745;9,92;0;0;0;-0,003588976900647469;-0,1339884610230949;0,03708609495047418;1,4343699453718681;-0,4272591326639607;0,5798516800439466
12:28:37.089;0;Wrist;1;3504;9,91;0;0;0;0,2715659166425062;0,17466353939367352;0,026319163317180778;-0,3051850947599719;1,586962492751854;-0,36622211371196634
12:28:37.089;0;Wrist;1;3505;9,91;0;0;0;0,1914120914334544;0,21055330653744622;0,0346934430624752;-0,3051850947599719;1,8311105685598315;-0,7019257179479355
12:28:37.089;0;Wrist;1;3506;9,91;0;0;0;0,16987822816686757;0,16628926337378308;0,05024567474636257;-0,4272591326639607;1,5564439832758568;-0,9460737937559129
12:28:37.089;0;Wrist;1;3507;9,91;0;0;0;0,21892758255733666;0,15671865582178715;0,031104465230476736;-0,6714072084719382;1,1902218695638904;-0,7629627368999298
12:28:37.089;0;Wrist;1;3508;9,91;0;0;0;0,22012391408944212;0,16868191153637807;0,020337535459885328;-0,6714072084719382;1,098666341135899;-0,7324442274239327
12:28:37.113;0;Mov;1;22746;10;0;0;0;0,00837427881394343;-0,13279214439260537;0,014355907602589877;1,6785180211798456;-0,6103701895199438;0,6103701895199438
12:28:37.114;0;Mov;1;22747;10;0;0;0;0,00837427881394343;-0,11604358490201651;0,00837427881394343;1,8921475875118259;-0,8850367748039186;0,5798516800439466
12:28:37.114;0;Mov;1;22748;10;0;0;0;0;-0,09211707347283471;0,04187139500106815;1,8616290780358287;-1,0376293221839046;0,640888698995941
12:28:37.114;0;Mov;1;22749;10;0;0;0;0;-0,09211707347283471;0,025122837373181287;1,8616290780358287;-1,2512588885158848;0,6103701895199438
12:28:37.114;0;Mov;1;22750;10;0;0;0;0,03947874311306917;-0,07895748622613834;0,004785302378971459;1,7090365306558428;-1,4343699453718681;0,7019257179479355
12:28:37.145;0;Mov;1;22751;9,87;0;0;0;0,05144199882766007;-0,06220893046095347;0,0239265114291818;1,5259254737998595;-1,4343699453718681;0,7324442274239327
12:28:37.145;0;Mov;1;22752;9,87;0;0;0;0,07776116214484084;-0,08135014183954131;-0,0011963255947428648;1,6174810022278512;-1,6174810022278512;0,7324442274239327
12:28:37.145;0;Mov;1;22753;9,87;0;0;0;0,05742363041035951;-0,0717795342875454;0,003588976900647469;1,586962492751854;-1,3428144169438765;0,8545182653279214
12:28:37.145;0;Mov;1;22754;9,87;0;0;0;0,038282419031771674;-0,058619954491657;0,025122837373181287;1,3733329264198737;-1,1597033600878932;0,8545182653279214
12:28:37.145;0;Mov;1;22755;9,87;0;0;0;0,027515489261180266;-0,07417218990094836;0,010766930701942408;1,2207403790398876;-1,1902218695638904;0,640888698995941
12:28:37.154;0;Wrist;1;3509;10,02;0;0;0;0,21773125102523117;0,15671865582178715;-0,015552232615238368;-0,7324442274239327;0,8545182653279214;-0,7019257179479355
12:28:37.154;0;Wrist;1;3510;10,02;0;0;0;0,2524247015385144;0,12561418500320445;0,0011963255947428648;-0,793481246375927;0,4882961516159551;-0,6714072084719382
12:28:37.154;0;Wrist;1;3511;10,02;0;0;0;0,21653493439474167;0,12322153684060945;0,021533861403884816;-0,6103701895199438;0,3051850947599719;-0,6103701895199438
12:28:37.154;0;Wrist;1;3512;10,02;0;0;0;0,22251656225203711;0,0705832102062479;0,01674855762788686;-0,5188146610919523;0;-0,5188146610919523
12:28:37.154;0;Wrist;1;3513;10,02;0;0;0;0,20816065837485123;0,0598162785729545;0,0598162785729545;0,030518509475997192;-0,24414807580797754;-0,18311105685598317
12:28:37.179;0;Wrist;1;3514;9,85;0;0;0;0,16868191153637807;0,11006195704472106;0,056227302603658026;0,6103701895199438;-0,640888698995941;0,12207403790398877
12:28:37.179;0;Wrist;1;3515;9,85;0;0;0;0,15193334459498123;0,06699423051154745;0,06101260637965598;0,793481246375927;-1,281777397991882;0,45777764213995786
12:28:37.179;0;Wrist;1;3516;9,85;0;0;0;0,17227089123107853;0,06101260637965598;0,010766930701942408;1,2207403790398876;-2,3499252296517836;1,281777397991882
12:28:37.179;0;Wrist;1;3517;9,85;0;0;0;0,18782311173875393;0,06579790643024995;0,00598162785729545;1,586962492751854;-3,021332438123722;1,6174810022278512
12:28:37.179;0;Wrist;1;3518;9,85;0;0;0;0,20457167868015075;0,08015381775824382;0,015552232615238368;1,922666096987823;-3,7842951750236518;2,1362956633198036
12:28:37.204;0;Mov;1;22756;9,94;0;0;0;0,0466566987770661;-0,08972441785943175;0,0011963255947428648;1,1902218695638904;-1,403851435895871;0,5188146610919523
12:28:37.204;0;Mov;1;22757;9,94;0;0;0;0,06220893046095347;-0,08613544561553926;0,004785302378971459;1,1597033600878932;-1,3428144169438765;0,4272591326639607
12:28:37.204;0;Mov;1;22758;9,94;0;0;0;0,040675070919770656;-0,0598162785729545;0,015552232615238368;1,1597033600878932;-1,3122959074678793;0,5188146610919523
12:28:37.204;0;Mov;1;22759;9,94;0;0;0;0,03708609495047418;-0,06460158234895245;0,0023926511894857296;0,9765923032319102;-1,281777397991882;0,45777764213995786
12:28:37.204;0;Mov;1;22760;9,94;0;0;0;0,0705832102062479;-0,06460158234895245;0,025122837373181287;0,9765923032319102;-1,3428144169438765;0,24414807580797754
12:28:37.239;0;Wrist;1;3519;9,92;0;0;0;0,22251656225203711;0,10886562551261558;-0,02273018548518231;1,8921475875118259;-4,272591326639607;2,6245918149357585
12:28:37.239;0;Wrist;1;3520;9,92;0;0;0;0,3672719623592334;0,13757744071779535;-0,12681051653530992;2,044740134891812;-4,516739402447585;2,807702871791742
12:28:37.239;0;Wrist;1;3521;9,92;0;0;0;0,4199102815427869;0,21055330653744622;-0,13039949623001038;2,075258644367809;-3,69273964659566;2,4719992675557725
12:28:37.239;0;Wrist;1;3522;9,92;0;0;0;0,3218115727618488;0,2596026609279153;-0,0945097216354297;1,6479995117038484;-2,71614734336375;1,8311105685598315
12:28:37.239;0;Wrist;1;3523;9,92;0;0;0;0,3050630207220679;0,239265114291818;-0,06460158234895245;0,7629627368999298;-2,410962248603778;1,281777397991882
12:28:37.265;0;Mov;1;22761;10;0;0;0;0,003588976900647469;-0,038282419031771674;0,06340525826765496;0,7324442274239327;-1,3428144169438765;0,18311105685598317
12:28:37.265;0;Mov;1;22762;10;0;0;0;-0,013159581658590389;-0,11006195704472106;0,06460158234895245;0,3967406231879635;-1,5259254737998595;0,09155552842799158
12:28:37.265;0;Mov;1;22763;10;0;0;0;-0,003588976900647469;-0,17585985602416304;0,021533861403884816;0,36622211371196634;-2,0142216254158147;0,061037018951994385
12:28:37.265;0;Mov;1;22764;10;0;0;0;-0,12800683316579944;0,013159581658590389;0,23806879766132846;0,45777764213995786;-2,075258644367809;0,3357036042359691
12:28:37.265;0;Mov;1;22765;10;0;0;0;-0,2153386028626362;-0,0705832102062479;0,20935697500534073;-0,6714072084719382;-2,9908139286477247;0,24414807580797754
12:28:37.270;0;Wrist;1;3524;9,81;0;0;0;0,3469344157231361;0,24524674214911343;-0,0705832102062479;0,24414807580797754;-2,1057771538438064;0,8545182653279214
12:28:37.271;0;Wrist;1;3525;9,81;0;0;0;0,2871181371501816;0,2560136663315989;-0,01794488357188635;-0,3967406231879635;-1,403851435895871;0,15259254737998595
12:28:37.271;0;Wrist;1;3526;9,81;0;0;0;0,1890194432708594;0,23806879766132846;0,021533861403884816;-1,1597033600878932;-1,1902218695638904;-0,3967406231879635
12:28:37.271;0;Wrist;1;3527;9,81;0;0;0;0,09092074194072924;0,2488357218438139;0,08733176969683676;-1,9531846064638203;-1,8616290780358287;-0,5493331705679495
12:28:37.271;0;Wrist;1;3528;9,81;0;0;0;0,11245460520731605;0,18303781541356395;0,0957060457167272;-3,326517532883694;-3,6317026276436657;-0,18311105685598317
12:28:37.322;0;Mov;1;22766;10,05;0;0;0;-0,14475540010719626;-0,01674855762788686;0,07417218990094836;-1,0376293221839046;-4,8829615161595505;-0,27466658528397475
12:28:37.322;0;Mov;1;22767;10,05;0;0;0;0,05024567474636257;-0,07656483806354335;-0,013159581658590389;-0,7629627368999298;-6,378368480483413;-1,0681478316599018
12:28:37.322;0;Mov;1;22768;10,05;0;0;0;0,06220893046095347;-0,236872466129223;-0,0346934430624752;-0,6103701895199438;-6,683553575243385;-1,098666341135899
12:28:37.323;0;Mov;1;22769;10,05;0;0;0;-0,05503097852236053;-0,1064729773500206;0,15791497245227668;-0,3051850947599719;-6,927701651051363;-0,5493331705679495
12:28:37.323;0;Mov;1;22770;10,05;0;0;0;-0,4761375953226569;-0,05144199882766007;0,42349924633587144;-0,7019257179479355;-8,209479049043244;-0,5493331705679495
12:28:37.330;0;Wrist;1;3529;9,87;0;0;0;0,22610554194673757;0,12681051653530992;0,0466566987770661;-3,814813684499649;-4,547257911923582;0,4272591326639607
12:28:37.330;0;Wrist;1;3530;9,87;0;0;0;0,20217903051755579;0,13279214439260537;0,0957060457167272;-3,295999023407697;-3,936887722403638;0,4272591326639607
12:28:37.330;0;Wrist;1;3531;9,87;0;0;0;0,17585985602416304;0,12800683316579944;0,12681051653530992;-3,357036042359691;-4,364146855067599;0,3357036042359691
12:28:37.330;0;Wrist;1;3532;9,87;0;0;0;0,1531296761270867;0,13518479255520036;0,07297585836884289;-3,3875545518356884;-4,8829615161595505;0,5798516800439466
12:28:37.330;0;Wrist;1;3533;9,87;0;0;0;0,15911130398438214;0,0945097216354297;0,08493911408343378;-2,8992584002197335;-5,523850215155492;0,9460737937559129
12:28:37.352;0;Mov;1;22771;9,93;0;0;0;-0,3923948053205206;0,1866267951082644;0,2895108002143925;-2,166814172795801;-12,421033356730858;-1,4954069643238623
12:28:37.352;0;Mov;1;22772;9,93;0;0;0;0,17227089123107853;0,08493911408343378;-0,10527665326872311;-3,051850947599719;-15,350810266426588;-3,1128879665517135
12:28:37.353;0;Mov;1;22773;9,93;0;0;0;0,3660756308271279;-0,18423414694566942;-0,290707131746498;-3,4180730613116856;-14,404736472670674;-3,6011841181676685
12:28:37.353;0;Mov;1;22774;9,93;0;0;0;0,17107455969897306;-0,09690236979802469;-0,0717795342875454;-3,2654805139316996;-12,17688528092288;-2,7771843623157446
12:28:37.353;0;Mov;1;22775;9,93;0;0;0;-0,11245460520731605;-0,028711815205179753;0,05742363041035951;-3,448591570787683;-11,291848506118962;-2,563554795983764
12:28:37.389;0;Wrist;1;3534;9,93;0;0;0;0,2739585499034852;0,14834437980189671;-0,03349711525577372;-2,533036286507767;-5,798516800439467;1,1597033600878932
12:28:37.390;0;Wrist;1;3535;9,93;0;0;0;0,29668875960379343;0,16389660030957212;-0,0957060457167272;-2,533036286507767;-5,645924253059481;1,0681478316599018
12:28:37.390;0;Wrist;1;3536;9,93;0;0;0;0,21414228623214668;0,20816065837485123;-0,010766930701942408;-2,8687398907437363;-5,340739158299509;0,6714072084719382
12:28:37.390;0;Wrist;1;3537;9,93;0;0;0;0,17585985602416304;0,17346720786156805;0,0598162785729545;-3,021332438123722;-5,706961272011475;0,6714072084719382
12:28:37.390;0;Wrist;1;3538;9,93;0;0;0;0,2009826989854503;0,19380473959604938;0,05024567474636257;-3,2349620044557024;-6,347849971007416;0,7019257179479355
12:28:37.413;0;Mov;1;22776;9,99;0;0;0;0,00837427881394343;-0,11604358490201651;-0,009570604757942918;-3,295999023407697;-12,421033356730858;-3,204443494979705
12:28:37.413;0;Mov;1;22777;9,99;0;0;0;-0,11125828112601856;-0,0957060457167272;0,20696432684274574;-3,2654805139316996;-12,81777397991882;-3,1434064760277107
12:28:37.413;0;Mov;1;22778;9,99;0;0;0;-0,4342662003215888;-0,013159581658590389;0,32540056735816525;-4,4557023834955904;-14,34369945371868;-2,71614734336375
12:28:37.413;0;Mov;1;22779;9,99;0;0;0;-0,0119632557145909;-0,05383465071565905;-0,03947874311306917;-4,7303689687795645;-18,097476119266336;-3,5706656086916717
12:28:37.413;0;Mov;1;22780;9,99;0;0;0;0,2823328408249916;-0,1531296761270867;-0,2129459547000412;-4,4557023834955904;-18,524735251930295;-3,448591570787683
12:28:37.420;0;Wrist;1;3539;9,83;0;0;0;0,21773125102523117;0,19978636745334483;-0,026319163317180778;-3,6011841181676685;-6,775109103671377;0,45777764213995786
12:28:37.420;0;Wrist;1;3540;9,83;0;0;0;0,14475540010719626;0,23567614949873347;0,02990813928647725;-3,7232581560716573;-6,836146122623371;0,36622211371196634
12:28:37.420;0;Wrist;1;3541;9,83;0;0;0;0,18303781541356395;0,2751548814355907;0,02273018548518231;-4,211554307687613;-7,141331217383343;0,3967406231879635
12:28:37.420;0;Wrist;1;3542;9,83;0;0;0;0,2631916257209998;0,2751548814355907;-0,0478530228583636;-4,486220892971588;-7,599108859523301;0,5188146610919523
12:28:37.420;0;Wrist;1;3543;9,83;0;0;0;0,29549242807168796;0,2476394052133244;-0,0957060457167272;-5,127109591967528;-7,354960783715323;0
12:28:37.448;0;Mov;1;22781;9,91;0;0;0;-0,14954069643238624;-0,1292031646979049;0,17107455969897306;-4,486220892971588;-17,212439344462418;-2,533036286507767
12:28:37.448;0;Mov;1;22782;9,91;0;-0,5826105652218696;0;-0,5826105652218696;0,038282419031771674;0,4976714436876278;-4,516739402447585;-19,318216498306224;-2,6245918149357585
12:28:37.448;0;Mov;1;22783;9,91;0;0;0;-0,42349924633587144;0,019141209515885837;0,30027772439687794;-4,150517288735618;-25,269325846125675;-3,7232581560716573
12:28:37.448;0;Mov;1;22784;9,91;0;0;0;0,14595171673768578;-0,04187139500106815;-0,06220893046095347;-3,662221137119663;-29,57243568224128;-4,119998779259621
12:28:37.448;0;Mov;1;22785;9,91;0;0;0;0,42110661307489244;-0,17227089123107853;-0,2584063293958098;-3,1128879665517135;-29,48088015381329;-3,9979247413556322
12:28:37.479;0;Wrist;1;3544;9,88;0;0;0;0,3050630207220679;0,13757744071779535;-0,11006195704472106;-5,340739158299509;-6,988738670003357;-0,36622211371196634
12:28:37.479;0;Wrist;1;3545;9,88;0;0;0;0,30386668918996246;0,0239265114291818;-0,11006195704472106;-4,8829615161595505;-6,622516556291391;-0,4882961516159551
12:28:37.479;0;Wrist;1;3546;9,88;0;0;0;0,4928861473624378;-0,01674855762788686;-0,25720999786370435;-4,1810357982116155;-6,134220404675435;-0,4272591326639607
12:28:37.479;0;Wrist;1;3547;9,88;0;0,7728263549264504;0;0,7728263549264504;-0,0011963255947428648;-0,4510147523613697;-3,6317026276436657;-3,9979247413556322;-0,9155552842799157
12:28:37.480;0;Wrist;1;3548;9,88;0;0,7333475633831293;0;0,7333475633831293;0,07536851398224585;-0,43187353725737787;-2,9297769096957307;-0,21362956633198035;-2,3499252296517836
12:28:37.505;0;Mov;1;22786;9,95;0;0;0;0,16030763551648763;-0,2524247015385144;-0,0945097216354297;-1,922666096987823;-26,581621753593556;-3,173924985503708
12:28:37.505;0;Mov;1;22787;9,95;0;0;0;-0,12441786092190694;-0,08852809377813425;0,08493911408343378;-1,4343699453718681;-25,54399243140965;-2,410962248603778
12:28:37.505;0;Mov;1;22788;9,95;0;0;0;-0,004785302378971459;0,11604358490201651;0,020337535459885328;-1,098666341135899;-26,917325357829522;-2,71614734336375
12:28:37.505;0;Mov;1;22789;9,95;0;0;0;0,15552232428968168;-0,05144199882766007;-0,0705832102062479;-1,3428144169438765;-27,06991790520951;-3,2349620044557024
12:28:37.505;0;Mov;1;22790;9,95;0;0;0;-0,1315958128604999;-0,22251656225203711;0,21055330653744622;-1,2512588885158848;-26,18488113040559;-2,9602954191717274
12:28:37.542;0;Wrist;1;3549;9,95;0;0;0;0,40435806103511157;0,13039949623001038;-0,1770561875562685;-2,838221381267739;2,9908139286477247;-3,936887722403638
12:28:37.542;0;Wrist;1;3550;9,95;0;0;0;0,39598377011360514;0,021533861403884816;-0,058619954491657;-3,051850947599719;4,211554307687613;-4,486220892971588
12:28:37.542;0;Wrist;1;3551;9,95;0;0,7465071804330576;0;0,7465071804330576;-0,2775475444998016;-0,36846829389133884;-2,685628833887753;5,340739158299509;-4,699850459303567
12:28:37.542;0;Wrist;1;3552;9,95;0;0,5610767168568987;0;0,5610767168568987;-0,3971801016457106;-0,0933133975541322;-0,5798516800439466;8,453627124851222;-5,1576281014435255
12:28:37.542;0;Wrist;1;3553;9,95;0;0;0;-0,15791497245227668;0,2273018585772271;0,03349711525577372;1,2207403790398876;10,010071108127079;-5,279702139347514
12:28:37.565;0;Mov;1;22791;10,01;0;0;0;-0,33736382307275614;-0,07895748622613834;0,23328348643452254;-1,4648884548478653;-27,61925107577746;-2,6245918149357585
12:28:37.565;0;Mov;1;22792;10,01;0;0;0;0,17227089123107853;-0,06579790643024995;-0,12322153684060945;-0,5798516800439466;-29,69450972014527;-3,3875545518356884
12:28:37.565;0;Mov;1;22793;10,01;0;0;0;0,22012391408944212;-0,18064516725096896;-0,10049134949272515;-0,9765923032319102;-28,321176793725396;-3,204443494979705
12:28:37.565;0;Mov;1;22794;10,01;0;0;0;0,16030763551648763;-0,18303781541356395;-0,11245460520731605;-1,0681478316599018;-26,367992187261574;-3,2654805139316996
12:28:37.565;0;Mov;1;22795;10,01;0;0;0;0,119632557145909;-0,13279214439260537;0,05144199882766007;-1,1291848506118962;-24,933622241889704;-3,1128879665517135
12:28:37.570;0;Wrist;1;3554;9,85;-0,5180089605204932;0;0,5586840537926878;-0,17227089123107853;-0,5180089605204932;0,5586840537926878;0,9460737937559129;5,981627857295449;-5,279702139347514
12:28:37.570;0;Wrist;1;3555;9,85;1,0826746421704765;0,5694510077784051;-0,5491134611423079;0,5694510077784051;1,0826746421704765;-0,5491134611423079;2,807702871791742;5,493331705679495;-3,967406231879635
12:28:37.570;0;Wrist;1;3556;9,85;0;0,5730399725714896;0;0,5730399725714896;-0,3780388865417188;0,0011963255947428648;2,2278511917477952;8,02636799218726;-4,089480269783624
12:28:37.572;0;Wrist;1;3557;9,85;0;0;0;0,06699423051154745;-0,2584063293958098;0,2153386028626362;4,119998779259621;9,643848994415112;-3,326517532883694
12:28:37.572;0;Wrist;1;3558;9,85;0;0;0;-0,12202521275931195;0,48690451950514235;0,08135014183954131;5,554368724631489;10,010071108127079;-1,3428144169438765
12:28:37.593;0;Mov;1;22796;9,89;0;0;0;-0,19739371929074984;0,00837427881394343;0,19978636745334483;-2,288888210699789;-24,597918637653738;-2,8992584002197335
12:28:37.593;0;Mov;1;22797;9,89;0;0;0;0,08972441785943175;-0,1184362330646115;-0,11006195704472106;-0,6714072084719382;-24,903103732413708;-3,662221137119663
12:28:37.593;0;Mov;1;22798;9,89;0;0;0;0,06340525826765496;-0,22610554194673757;0,003588976900647469;-1,7090365306558428;-24,323252052369764;-3,357036042359691
12:28:37.593;0;Mov;1;22799;9,89;0;0;0;0,09092074194072924;-0,117239908983314;-0,00837427881394343;-2,044740134891812;-24,079103976561786;-2,7771843623157446
12:28:37.593;0;Mov;1;22800;9,89;0;0;0;0,014355907602589877;0,0119632557145909;-0,026319163317180778;-2,4414807580797753;-23,68236335337382;-2,533036286507767
12:28:37.630;0;Wrist;1;3559;9,89;0;0;0;0,038282419031771674;-0,13279214439260537;0,19739371929074984;6,500442518387402;7,93481246375927;-0,8545182653279214
12:28:37.630;0;Wrist;1;3560;9,89;0;0;0;0,14236275194460127;0,10886562551261558;0,058619954491657;8,667256691183203;8,178960539567248;0,3357036042359691
12:28:37.630;0;Wrist;1;3561;9,89;0;0;0;0,11604358490201651;0,12800683316579944;-0,14595171673768578;10,193182164983062;7,812738425855281;0,8850367748039186
12:28:37.630;0;Wrist;1;3562;9,89;0;0;0;0,32779320061914424;0,07656483806354335;-0,13638112408730582;9,186071352275155;6,2868129520554215;1,5564439832758568
12:28:37.630;0;Wrist;1;3563;9,89;0;0,6436231455236976;0;0,6436231455236976;0,06220893046095347;-0,3337748284764397;8,57570116275521;7,873775444807276;1,6174810022278512
12:28:37.652;0;Mov;1;22801;9,94;0;0;0;0,37923521807382427;-0,0478530228583636;-0,22969452164143803;-3,204443494979705;-22,61421552171392;-2,6245918149357585
12:28:37.652;0;Mov;1;22802;9,94;0;0;0;0,38760947919209876;-0,1411664204124958;-0,35291604358043155;-3,9063692129276406;-20,142216254158146;-2,075258644367809
12:28:37.652;0;Mov;1;22803;9,94;0;0;0;0,26199529418889433;-0,2440504255186239;-0,21653493439474167;-4,089480269783624;-17,48710592974639;-1,6785180211798456
12:28:37.653;0;Mov;1;22804;9,94;0;0;0;-0,0119632557145909;-0,11006195704472106;0,04904935066506508;-3,4180730613116856;-15,045625171666616;-1,3733329264198737
12:28:37.653;0;Mov;1;22805;9,94;0;0;0;0,11484726082071901;0,0598162785729545;-0,06340525826765496;-2,8687398907437363;-14,954069643238624;-1,5564439832758568
12:28:37.689;0;Mov;1;22806;9,88;0;0;0;0,20457167868015075;-0,06101260637965598;-0,18064516725096896;-2,71614734336375;-14,648884548478652;-1,6479995117038484
12:28:37.689;0;Mov;1;22807;9,88;0;0;0;0,39957273490668965;-0,06340525826765496;-0,37684255500961333;-2,3499252296517836;-12,634662923062837;-1,6479995117038484
12:28:37.689;0;Mov;1;22808;9,88;0;0;0;0,4773339268547624;-0,0933133975541322;-0,33975645633373514;-1,3428144169438765;-9,521774956511123;-1,2512588885158848
12:28:37.689;0;Mov;1;22809;9,88;0;0;0;0,49886777521973324;-0,290707131746498;-0,4845118564409314;-0,15259254737998595;-5,829035309915464;-0,8850367748039186
12:28:37.689;0;Mov;1;22810;9,88;0;0,5909848561433759;-0,5562913907284768;0,5909848561433759;-0,43306986878948334;-0,5562913907284768;1,5564439832758568;-1,3428144169438765;-0,9155552842799157
12:28:37.690;0;Wrist;1;3564;9,95;0;0,8075197607348857;0;0,8075197607348857;-0,10527665326872311;-0,4964751121555223;8,880886257515183;10,589922788171025;0,4882961516159551
12:28:37.690;0;Wrist;1;3565;9,95;0;0,7321512616542558;0;0,7321512616542558;-0,03708609495047418;-0,48211922317995237;8,48414563432722;13,306070131534776;-0,3967406231879635
12:28:37.690;0;Wrist;1;3566;9,95;0;0;0;0,04306772280776963;0,24524674214911343;-0,07895748622613834;7,538071840571306;15,259254737998596;-1,5564439832758568
12:28:37.691;0;Wrist;1;3567;9,95;0;0;0;-0,26199529418889433;0,17466353939367352;-0,1674855800042726;6,40888698995941;14,007995849482711;-1,3428144169438765
12:28:37.691;0;Wrist;1;3568;9,95;0;0;0;-0,16389660030957212;-0,0598162785729545;-0,3385601546048616;3,6317026276436657;10,925626392406995;0,5798516800439466
12:28:37.719;0;Wrist;1;3569;9,85;0;0;0;-0,09929502541142765;-0,0837427900021363;-0,28472550388920254;0,36622211371196634;7,782219916379284;3,2349620044557024
12:28:37.720;0;Wrist;1;3570;9,85;0;0;0;-0,234479817966628;0,415124985217597;-0,0358897671437727;-1,4343699453718681;6,225775933103427;5,981627857295449
12:28:37.720;0;Wrist;1;3571;9,85;0;0;0;-0,040675070919770656;0,20816065837485123;0,00837427881394343;-0,12207403790398877;5,127109591967528;7,5685903500473035
12:28:37.720;0;Wrist;1;3572;9,85;0;0;0;0,021533861403884816;0,06220893046095347;-0,0837427900021363;3,2654805139316996;5,279702139347514;8,453627124851222
12:28:37.720;0;Wrist;1;3573;9,85;0;0;0;0,00837427881394343;0,28352917235709707;-0,0011963255947428648;0,8239997558519242;2,8687398907437363;8,880886257515183
12:28:37.747;0;Mov;1;22811;9,92;0;0,5012604382839442;0;0,5012604382839442;-0,39837643317781607;-0,3816278513348033;3,967406231879635;3,5096285897396773;-0,21362956633198035
12:28:37.747;0;Mov;1;22812;9,92;0;0;0;0,415124985217597;-0,2679769220461898;-0,32540056735816525;6,622516556291391;7,629627368999298;0,793481246375927
12:28:37.747;0;Mov;1;22813;9,92;0;0;0;0,412732322153386;-0,3337748284764397;-0,38043154960592973;9,857478560747094;10,742515335551012;1,586962492751854
12:28:37.747;0;Mov;1;22814;9,92;-0,5909848561433759;0,5778252390934476;0;0,5778252390934476;-0,5909848561433759;-0,4306772057252724;14,34369945371868;13,946958830530717;2,5940733054597613
12:28:37.747;0;Mov;1;22815;9,92;-0,7201880059396649;1,0240546653263956;-1,1424909207434308;1,0240546653263956;-0,7201880059396649;-1,1424909207434308;19,226660969878232;18,402661214026306;4,394665364543596
12:28:37.779;0;Wrist;1;3574;9,9;0;0;0;0,10886562551261558;0,24046144582392345;-0,02273018548518231;0,5493331705679495;1,3122959074678793;9,155552842799157
12:28:37.779;0;Wrist;1;3575;9,9;0;0;0;0,1531296761270867;0,43665883358256785;-0,02273018548518231;-0,7324442274239327;0,3967406231879635;9,430219428083133
12:28:37.779;0;Wrist;1;3576;9,9;0;0;0;0,29309976500747703;0,4474257577650533;0,08733176969683676;-3,1128879665517135;-1,1597033600878932;8,423108615375225
12:28:37.780;0;Wrist;1;3577;9,9;0;0;0;0,3923948053205206;0,478530228583636;-0,01674855762788686;-4,119998779259621;-1,7090365306558428;6,378368480483413
12:28:37.780;0;Wrist;1;3578;9,9;0;0;0;0,36487929929502244;0,2990813928647725;-0,004785302378971459;-6,134220404675435;-2,2278511917477952;3,967406231879635
12:28:37.804;0;Mov;1;22816;9,96;-0,9151890621662038;2,2419142639698477;-2,045716727195044;2,2419142639698477;-0,9151890621662038;-2,045716727195044;25,727103488265634;28,38221381267739;6,897183141575366
12:28:37.804;0;Mov;1;22817;9,96;-1,0826746421704765;2,3065157494582964;-1,6246101737266152;2,3065157494582964;-1,0826746421704765;-1,6246101737266152;32,532731101413006;45,22843104342784;12,543107394634847
12:28:37.804;0;Mov;1;22818;9,96;0;1,9643666598635823;-0,6256782619518113;1,9643666598635823;-0,19380473959604938;-0,6256782619518113;37,018951994384594;62,34931485946226;19,165623950926236
12:28:37.804;0;Mov;1;22819;9,96;1,690408080156865;1,3709890810495315;0,8386242613567003;1,3709890810495315;1,690408080156865;0,8386242613567003;32,593768120365;77,24234748374889;27,741325113681448
12:28:37.805;0;Mov;1;22820;9,96;2,0433241237372965;0;0,9319376440092166;-0,38402051439901425;2,0433241237372965;0,9319376440092166;20,630512405774102;90,06012146366771;44,92324594866787
12:28:37.837;0;Mov;1;22821;9,88;0,9773980038033693;-1,3554369201483198;2,302926725058748;-1,3554369201483198;0,9773980038033693;2,302926725058748;18,37214270455031;99,21567430646687;68,02575762199774
12:28:37.837;0;Mov;1;22822;9,88;-2,5601367229224525;0;3,9263407162694173;-0,24524674214911343;-2,5601367229224525;3,9263407162694173;20,11169774468215;102,54219183935056;86,947233497116
12:28:37.837;0;Mov;1;22823;9,88;-5,634693441572313;0,5646656816499832;3,163084953993347;0,5646656816499832;-5,634693441572313;3,163084953993347;47,48680074465163;111,9724112674337;93,63078707235938
12:28:37.837;0;Mov;1;22824;9,88;-5,131040280617695;1,6389660328989533;4,420422986541337;1,6389660328989533;-5,131040280617695;4,420422986541337;76,20471816156498;124,79018524735253;103,57982116153447
12:28:37.837;0;Mov;1;22825;9,88;-3,8509721575823237;4,043580431531724;11,368681714835047;4,043580431531724;-3,8509721575823237;11,368681714835047;87,52708517715995;134,09833063753166;113,31522568437758
12:28:37.843;0;Wrist;1;3579;9,96;0;0;0;0,3624866660340434;0,18543046357615894;-0,04187139500106815;-6,500442518387402;-1,8005920590838342;2,2278511917477952
12:28:37.843;0;Wrist;1;3580;9,96;0;0;0;0,26917325357829525;0,1961974026602603;0,1076693014313181;-6,4394054994354075;-1,8005920590838342;1,1597033600878932
12:28:37.843;0;Wrist;1;3581;9,96;0;0,5861995300149541;0;0,5861995300149541;0,08852809377813425;0,06699423051154745;-6,500442518387402;-1,7090365306558428;0,3051850947599719
12:28:37.844;0;Wrist;1;3582;9,96;0;0;0;0,37564622347750787;0,34095278786584066;0,3852168459311197;-5,4322946867275;0,9460737937559129;-1,098666341135899
12:28:37.844;0;Wrist;1;3583;9,96;0;0,6878872035889767;0;0,6878872035889767;0,12561418500320445;0,14236275194460127;-4,7303689687795645;4,272591326639607;-3,051850947599719
12:28:37.869;0;Wrist;1;3584;9,86;0;0;0;0,290707131746498;0,3014740559289834;0,31224098011146884;-5,371257667775506;6,8666646320993685;-4,821924497207556
12:28:37.870;0;Wrist;1;3585;9,86;0;0;0,5538987276642658;-0,10168767357402264;0,3744499217486343;0,5538987276642658;-5,676442762535478;9,552293465987121;-6,225775933103427
12:28:37.870;0;Wrist;1;3586;9,86;0;0;0;0,1411664204124958;0,12800683316579944;0,18423414694566942;-6,469924008911405;11,383404034546952;-6,164738914151433
12:28:37.870;0;Wrist;1;3587;9,86;0;0;0;0,3971801016457106;0,2631916257209998;0,32779320061914424;-8,270516067995239;14,618366039002655;-4,821924497207556
12:28:37.870;0;Wrist;1;3588;9,86;0;0;0;0,3816278513348033;0,4510147523613697;-0,013159581658590389;-4,272591326639607;24,262215033417768;-5,645924253059481
12:28:37.893;0;Mov;1;22826;9,91;-7,522495479445784;5,390643120365001;10,422388569292275;5,390643120365001;-7,522495479445784;10,422388569292275;60,945463423566395;139,65269936216316;106,69270912808618
12:28:37.893;0;Mov;1;22827;9,91;-9,88882774590289;7,973509933774834;4,18235429319132;7,973509933774834;-9,88882774590289;4,18235429319132;56,61183507797479;135,10544145023957;102,75582140568255
12:28:37.893;0;Mov;1;22828;9,91;-10,486990531632435;9,52753723258156;4,633369224372082;9,52753723258156;-10,486990531632435;4,633369224372082;63,20383312479019;138,70662556840725;98,20856349375896
12:28:37.893;0;Mov;1;22829;9,91;-12,483657338175604;11,997949537644581;6,35488162633137;11,997949537644581;-12,483657338175604;6,35488162633137;55,69627979369488;137,11966307565538;83,83434553056429
12:28:37.893;0;Mov;1;22830;9,91;-13,24810975981933;15,004315507980591;5,787823400830104;15,004315507980591;-13,24810975981933;5,787823400830104;47,42576372569964;127,75048066652425;60,70131534775842
12:28:37.929;0;Wrist;1;3589;9,9;0;0;0;0,36846829389133884;0,25003203847430344;-0,26917325357829525;-4,24207281716361;25,086214789269693;-7,232886745811334
12:28:37.929;0;Wrist;1;3590;9,9;0;0,6926725297173986;0;0,6926725297173986;0,17825251908837397;-0,43665883358256785;-10,254219183935056;24,048585467085786;-6,653035065767388
12:28:37.930;0;Wrist;1;3591;9,9;0,6173040306367688;0;0;0,3923948053205206;0,6173040306367688;-0,3469344157231361;-16,96829126865444;24,323252052369764;-6,836146122623371
12:28:37.930;0;Wrist;1;3592;9,9;0,6938688314462722;0;0;-0,014355907602589877;0,6938688314462722;-0,12561418500320445;-19,928586687826165;24,811548203985716;-10,071108127079073
12:28:37.930;0;Wrist;1;3593;9,9;0,598162785729545;0;0;0,07536851398224585;0,598162785729545;-0,44144412990775783;-23,71288186284982;24,23169652394177;-12,93984801782281
12:28:37.953;0;Mov;1;22831;9,95;-12,536296044801173;17,349114581743827;5,60837456511124;17,349114581743827;-12,536296044801173;5,60837456511124;39,52146977141636;116,42811365092929;33,50932340464492
12:28:37.953;0;Mov;1;22832;9,95;-11,088742103335672;18,753599276711327;6,557060552537614;18,753599276711327;-11,088742103335672;6,557060552537614;27,771843623157444;101,26041444135869;8,392590105899227
12:28:37.953;0;Mov;1;22833;9,95;-9,301431318094425;19,83388203070162;7,429181798760949;19,83388203070162;-9,301431318094425;7,429181798760949;12,878810998870815;80,29419843134862;-10,132145146031068
12:28:37.953;0;Mov;1;22834;9,95;-7,576330130161443;20,199957274086735;8,01179254280221;20,199957274086735;-7,576330130161443;8,01179254280221;-1,9531846064638203;55,66576128421888;-19,837031159398176
12:28:37.953;0;Mov;1;22835;9,95;-6,19098483230079;19,842255546739096;8,928177549058503;19,842255546739096;-6,19098483230079;8,928177549058503;-14,313180944242683;29,084139530625325;-21,39347514267403
12:28:37.982;0;Mov;1;22836;9,87;-5,471993068483536;19,001239814447462;10,123307176427502;19,001239814447462;-5,471993068483536;10,123307176427502;-25,29984435560167;1,7700735496078372;-18,402661214026306
12:28:37.982;0;Mov;1;22837;9,87;-4,948002658925138;17,554881817072054;11,192822618793299;17,554881817072054;-4,948002658925138;11,192822618793299;-35,21835993530076;-23,987548448133793;-15,625476851710562
12:28:37.983;0;Mov;1;22838;9,87;-4,474257637256996;15,303396900845362;12,39034413434248;15,303396900845362;-4,474257637256996;12,39034413434248;-44,068727683339944;-47,73094882045961;-14,831995605334635
12:28:37.984;0;Mov;1;22839;9,87;-3,5399275090029603;12,876051934873502;12,819825395977661;12,876051934873502;-3,5399275090029603;12,819825395977661;-52,40028077028718;-68,78872035889768;-17,09036530655843
12:28:37.984;0;Mov;1;22840;9,87;-2,5493698881496627;10,655672055726798;12,721726508377332;10,655672055726798;-2,5493698881496627;12,721726508377332;-58,22931608020264;-85,9401226844081;-19,440290536210213
12:28:38.020;0;Wrist;1;3594;10,08;0;0;-0,727365935525834;-0,0717795342875454;0,48211922317995237;-0,727365935525834;-28,931546983245337;22,15643787957396;-15,198217719046601
12:28:38.021;0;Wrist;1;3595;10,08;0,5120273326631978;0;-0,7895748771629993;-0,33257852674756616;0,5120273326631978;-0,7895748771629993;-37,385174108096564;17,120883816034425;-15,533921323282572
12:28:38.021;0;Wrist;1;3596;10,08;0;0;-0,9666311094241157;0,007177953801294938;0,21055330653744622;-0,9666311094241157;-44,09924619281594;11,444441053498947;-14,862514114810633
12:28:38.021;0;Wrist;1;3597;10,08;0;0;-0,6125187045083468;-0,27635121296769616;0,1914120914334544;-0,6125187045083468;-46,81539353617969;4,66933194982757;-13,092440565202795
12:28:38.021;0;Wrist;1;3598;10,08;0;-0,5993591470648824;0;-0,5993591470648824;0,37564622347750787;-0,46297800807596057;-48,49391155735954;-1,4343699453718681;-11,597033600878934
12:28:38.043;0;Mov;1;22841;9,91;-2,7072848158970917;8,645845095675528;12,598505165257729;8,645845095675528;-2,7072848158970917;12,598505165257729;-58,25983458967864;-100,22278511917477;-19,98962370677816
12:28:38.043;0;Mov;1;22842;9,91;-3,602136391033662;6,799914452803125;11,863960882900479;6,799914452803125;-3,602136391033662;11,863960882900479;-53,895687734611045;-113,77300332651754;-23,499252296517838
12:28:38.043;0;Mov;1;22843;9,91;-4,426404614398633;5,041315862758263;10,555180326242866;5,041315862758263;-4,426404614398633;10,555180326242866;-51,51524399548326;-125,91937009796442;-34,54695272682882
12:28:38.043;0;Mov;1;22844;9,91;-4,812818060090946;2,994402953047273;8,859987754448072;2,994402953047273;-4,812818060090946;8,859987754448072;-53,80413220618305;-135,16647846919156;-52,33924375133518
12:28:38.043;0;Mov;1;22845;9,91;-5,023370979186376;0,8003418311487167;6,76163232062746;0,8003418311487167;-5,023370979186376;6,76163232062746;-57,74101992858669;-141,08706930753502;-73,79375591296122
12:28:38.065;0;Wrist;1;3599;10,06;0;-0,5646656816499832;0;-0,5646656816499832;0,35650503817674795;-0,29309976500747703;-49,86724448377941;-9,33866389965514;-11,20029297769097
12:28:38.065;0;Wrist;1;3600;10,06;0,5574877520638142;-0,5263832514419996;0;-0,5263832514419996;0,5574877520638142;0,0957060457167272;-51,42368846705527;-15,411847285378583;-12,085329752494888
12:28:38.066;0;Wrist;1;3601;10,06;0;0;0;-0,007177953801294938;0,24165777735602892;0,1914120914334544;-51,57628101443525;-18,768883327738273;-14,099551377910704
12:28:38.066;0;Wrist;1;3602;10,06;0;0;0,5335612406346324;-0,004785302378971459;0,05024567474636257;0,5335612406346324;-50,874355296487316;-18,616290780358288;-15,045625171666616
12:28:38.066;0;Wrist;1;3603;10,06;0;0;0,7285622968611714;-0,04546037097036462;-0,03230079117447623;0,7285622968611714;-48,55494857631153;-17,792291024506362;-14,496292001098666
12:28:38.080;0;Wrist;1;3604;9,91;0;0;0,7764153197195349;0,42110661307489244;-0,2895108002143925;0,7764153197195349;-44,49598681600391;-17,853328043458358;-13,336588641010772
12:28:38.080;0;Wrist;1;3605;9,91;0;0,8601581097216712;0,874514028500473;0,8601581097216712;-0,4534073856223487;0,874514028500473;-39,948728904080326;-16,3274025696585;-10,681478316599017
12:28:38.080;0;Wrist;1;3606;9,91;0;1,0934415961561936;1,189147641872921;1,0934415961561936;-0,26079899246002075;1,189147641872921;-34,18073061311686;-10,620441297647023;-7,93481246375927
12:28:38.080;0;Wrist;1;3607;9,91;0;1,2561418500320445;0,9881649577890865;1,2561418500320445;-0,354112375112537;0,9881649577890865;-23,926511429181797;-2,2583697012237924;-6,622516556291391
12:28:38.080;0;Wrist;1;3608;9,91;-0,6220892971587267;1,0910489926984466;1,2334116403317361;1,0910489926984466;-0,6220892971587267;1,2334116403317361;-15,167699209570605;3,69273964659566;-4,943998535111545
12:28:38.104;0;Mov;1;22846;9,96;-5,031745448927275;-1,123349735442671;4,479042844172491;-1,123349735442671;-5,031745448927275;4,479042844172491;-60,182500686666465;-143,4369945371868;-97,07937864314707
12:28:38.105;0;Mov;1;22847;9,96;-4,866652710806604;-2,6833583044679097;1,6856227540284432;-2,6833583044679097;-4,866652710806604;1,6856227540284432;-61,922055726798305;-142,5214392529069;-121,00589007232887
12:28:38.105;0;Mov;1;22848;9,96;-5,687331671346171;-4,117752807702872;-1,1903439436017944;-4,117752807702872;-5,687331671346171;-1,1903439436017944;-63,41746269112217;-137,45536667989134;-144,7187719351787
12:28:38.105;0;Mov;1;22849;9,96;-5,728007122257149;-5,058064802240058;-4,464687223426008;-5,058064802240058;-5,728007122257149;-4,464687223426008;-65,34012878811;-128,33033234656818;-170,8426160466323
12:28:38.105;0;Mov;1;22850;9,96;-3,998120250556963;-5,690920934171575;-7,745012131107517;-5,690920934171575;-3,998120250556963;-7,745012131107517;-74,12945951719718;-117,4657429731132;-197,57683034760583
12:28:38.110;0;Wrist;1;3609;9,83;-0,6687460182882168;0,7584704361476485;1,5635975934247872;0,7584704361476485;-0,6687460182882168;1,5635975934247872;-8,362071596423231;16,876735740226447;-1,7090365306558428
12:28:38.110;0;Wrist;1;3610;9,83;-0,8996368416585284;0,5586840537926878;1,5420636854533525;0,5586840537926878;-0,8996368416585284;1,5420636854533525;3,6011841181676685;30,915250099185155;-0,5798516800439466
12:28:38.110;0;Wrist;1;3611;9,83;-1,30878019901883;0,9355266088023011;2,244306867427595;0,9355266088023011;-1,30878019901883;2,244306867427595;14,648884548478652;45,625171666615806;2,4719992675557725
12:28:38.110;0;Wrist;1;3612;9,83;-1,208288827173681;1,6784448244422743;1,282461084131901;1,6784448244422743;-1,208288827173681;1,282461084131901;20,23377178258614;65,70635090182195;6,19525742362743
12:28:38.110;0;Wrist;1;3613;9,83;-1,3410809417630543;2,546977284691916;2,6833583044679097;2,546977284691916;-1,3410809417630543;2,6833583044679097;29,328287606433303;79,80590227973266;6,8666646320993685
12:28:38.135;0;Mov;1;22851;9,78;-2,051698355052339;-6,3931637585070344;-10,177141827143162;-6,3931637585070344;-2,051698355052339;-10,177141827143162;-89,48026978362377;-108,89004181035799;-217,16971343119602
12:28:38.135;0;Mov;1;22852;9,78;0;-6,979363288521989;-10,634138386181219;-6,979363288521989;0,05742363041035951;-10,634138386181219;-106,63167210913419;-104,31226538895841;-227,72911770989106
12:28:38.135;0;Mov;1;22853;9,78;2,3854733325449384;-7,779705477309488;-8,51783806878872;-7,779705477309488;2,3854733325449384;-8,51783806878872;-122,95907467879269;-106,96737571337016;-229,1634876552629
12:28:38.135;0;Mov;1;22854;9,78;4,4527239677114165;-8,950908116397596;-5,196838187047945;-8,950908116397596;4,4527239677114165;-5,196838187047945;-131,07699819940794;-118,96114993743706;-221,4728232673116
12:28:38.135;0;Mov;1;22855;9,78;6,6575518051698355;-10,60303334910123;-3,0243110923337504;-10,60303334910123;6,6575518051698355;-3,0243110923337504;-126,77388836329234;-137,11966307565538;-204,1993469038972
12:28:38.170;0;Wrist;1;3614;9,91;-1,0826746421704765;4,175176244392224;2,1091220301675464;4,175176244392224;-1,0826746421704765;2,1091220301675464;45,045319986571855;107,85241248817408;5,035554063539537
12:28:38.170;0;Wrist;1;3615;9,91;-0,5335612406346324;5,889511074404126;2,355565193258461;5,889511074404126;-0,5335612406346324;2,355565193258461;62,80709250160222;130,52766502884;-2,807702871791742
12:28:38.170;0;Wrist;1;3616;9,91;0;8,650630779442732;4,200299176763207;8,650630779442732;-0,052638326634361556;4,200299176763207;72,8782006286813;172,03283791619617;-20,935697500534072
12:28:38.170;0;Wrist;1;3617;9,91;-1,0707113864558855;6,558256973479415;7,192309526352733;6,558256973479415;-1,0707113864558855;7,192309526352733;91,86071352275155;260,719626453444;-45,74724570451979
12:28:38.170;0;Wrist;1;3618;9,91;-0,8804956563577685;4,670454935605945;11,076778847621082;4,670454935605945;-0,8804956563577685;11,076778847621082;144,29151280251472;377,63603625598927;-79,2260505996887
12:28:38.194;0;Mov;1;22856;9,97;8,74872871333964;-12,286263618884854;-0,8362315982924894;-12,286263618884854;8,74872871333964;-0,8362315982924894;-115,66515091402935;-159,9169896542253;-176,70216986602375
12:28:38.194;0;Mov;1;22857;9,97;10,3948732718894;-14,22431104464858;0;-14,22431104464858;10,3948732718894;0,4426404614398633;-104,61745048371837;-180,2423169652394;-145,05447553941465
12:28:38.195;0;Mov;1;22858;9,97;12,04101687673574;-16,24370937223426;-0,6256782619518113;-16,24370937223426;12,04101687673574;-0,6256782619518113;-91,89123203222755;-196,26453444013794;-111,14841151158177
12:28:38.195;0;Mov;1;22859;9,97;13,398846400341807;-18,71531762138737;-2,1318521206549272;-18,71531762138737;13,398846400341807;-2,1318521206549272;-78,3410138248848;-200,9949034089175;-74,92294076357311
12:28:38.195;0;Mov;1;22860;9,97;13,749369602038636;-21,29339922788171;-2,622345604953154;-21,29339922788171;13,749369602038636;-2,622345604953154;-62,10516678365428;-193,4263130588702;-37,11050752281258
12:28:38.229;0;Wrist;1;3619;9,96;0;5,096346934415723;10,07665009765923;5,096346934415723;0,4258919094000824;10,07665009765923;212,28675191503646;511,52073732718895;-111,05685598315378
12:28:38.229;0;Wrist;1;3620;9,96;0;7,7426192892239145;9,791924802392652;7,7426192892239145;-0,24165777735602892;9,791924802392652;244,08703878902554;631,244850001526;-119,84618671224098
12:28:38.229;0;Wrist;1;3621;9,96;-1,8327708470030823;6,54150851084933;3,1176245345927307;6,54150851084933;-1,8327708470030823;3,1176245345927307;249,33622241889705;723,6243781853694;-114,87166966765344
12:28:38.229;0;Wrist;1;3622;9,96;-3,163084953993347;4,739842104861599;2,567314771721549;4,739842104861599;-3,163084953993347;2,567314771721549;258,5528122806482;730,0637836848049;-123,38633381145665
12:28:38.229;0;Wrist;1;3623;9,96;1,1640248287148656;2,19525742362743;5,79500097277749;2,19525742362743;1,1640248287148656;5,79500097277749;246,7421491134373;745,0788903469954;-134,7392193365276
12:28:38.253;0;Mov;1;22861;9,96;12,984918134098331;-23,71715445417646;-2,2012390514847255;-23,71715445417646;12,984918134098331;-2,2012390514847255;-43,824579607531966;-178,5027619251076;-2,6551103244117558
12:28:38.253;0;Mov;1;22862;9,96;12,14988307596057;-25,3573164311655;-2,3340312852870264;-25,3573164311655;12,14988307596057;-2,3340312852870264;-23,46873378704184;-160,00854518265328;23,13303018280587
12:28:38.253;0;Mov;1;22863;9,96;11,442854091006195;-25,820295571764277;-3,520786204489273;-25,820295571764277;11,442854091006195;-3,520786204489273;-0,24414807580797754;-135,59373760185554;42,78695028534806
12:28:38.253;0;Mov;1;22864;9,96;9,753642193365277;-25,699467070528275;-4,306772057252724;-25,699467070528275;9,753642193365277;-4,306772057252724;23,56028931546983;-104,15967284157841;58,80916776024659
12:28:38.253;0;Mov;1;22865;9,96;6,675496688741722;-25,126426740318003;-4,317538892025514;-25,126426740318003;6,675496688741722;-4,317538892025514;48,09717093417157;-72,7256080813013;69,39909054841762
12:28:38.260;0;Wrist;1;3624;9,82;1,8399487765892515;-7,378936410870693;14,243452826013977;-7,378936410870693;1,8399487765892515;14,243452826013977;216,3151951658681;747,6119266335032;-177,64824365977967
12:28:38.260;0;Wrist;1;3625;9,82;2,5338176080355237;-9,035846850489822;34,00196462904752;-9,035846850489822;2,5338176080355237;34,00196462904752;108,64589373455;394,5127719962157;-201,1780144657735
12:28:38.260;0;Wrist;1;3626;9,82;0,830249970435194;19,160349971007417;24,49715987121189;19,160349971007417;0,830249970435194;24,49715987121189;58,19879757072665;31,40354625080111;-153,75225074007386
12:28:38.260;0;Wrist;1;3627;9,82;2,881948444700461;12,879641674550616;13,372527047029022;12,879641674550616;2,881948444700461;13,372527047029022;98,42219306009095;43,214209418012025;-154,2100283822138
12:28:38.260;0;Wrist;1;3628;9,82;3,5841915074617754;14,858363597521898;9,455757698294015;14,858363597521898;3,5841915074617754;9,455757698294015;93,87493514816737;-11,169774468214973;-148,35047456282234
12:28:38.319;0;Wrist;1;3629;9,96;5,522238933225501;15,073702200384533;10,74539647358623;15,073702200384533;5,522238933225501;10,74539647358623;87,77123325296793;-41,90191351054415;-142,09418012024292
12:28:38.319;0;Wrist;1;3630;9,96;7,599060220648823;14,207563058870205;13,169151699880977;14,207563058870205;7,599060220648823;13,169151699880977;76,96768089846492;-67,20175786614581;-130,95492416150395
12:28:38.319;0;Wrist;1;3631;9,96;8,795385792107913;12,355650311288796;14,430079233680226;12,355650311288796;8,795385792107913;14,430079233680226;59,38901944029054;-97,50663777581103;-112,82692953276162
12:28:38.320;0;Wrist;1;3632;9,96;9,686648342844935;9,300235374004334;14,745909566026794;9,300235374004334;9,686648342844935;14,745909566026794;40,95583971678823;-129,1848506118961;-94,02752769554735
12:28:38.320;0;Wrist;1;3633;9,96;10,6472975859859;7,128903984954375;14,245844714194158;7,128903984954375;10,6472975859859;14,245844714194158;26,551103244117556;-156,86513870662557;-75,25864436780908
12:28:38.343;0;Mov;1;22866;10,08;3,4908780652027955;-24,31172940763573;-4,940824610126041;-24,31172940763573;3,4908780652027955;-4,940824610126041;71,23020111697744;-43,33628345591601;72,54249702444532
12:28:38.344;0;Mov;1;22867;10,08;1,2154667567598498;-23,701603366191595;-7,054732085634938;-23,701603366191595;1,2154667567598498;-7,054732085634938;83,19345683156834;-12,848292489394819;69,33805352946563
12:28:38.344;0;Mov;1;22868;10,08;0;-22,93834688863796;-9,425849559007538;-22,93834688863796;-0,49168981583033233;-9,425849559007538;77,2728659932249;19,89806817835017;61,64738914151433
12:28:38.344;0;Mov;1;22869;10,08;-1,8435378009887997;-20,367442854091006;-10,264473403118991;-20,367442854091006;-1,8435378009887997;-10,264473403118991;59,11435285500656;51,54576250495926;48,18872646259957
12:28:38.344;0;Mov;1;22870;10,08;-1,208288827173681;3,989745780816065;-3,8378124809259315;3,989745780816065;-1,208288827173681;-3,8378124809259315;40,28443250831629;52,919095431379134;49,04324472792749
12:28:38.344;0;Mov;1;22871;9,97;-17,017731254005554;16,421962263863033;0,9738090390102847;16,421962263863033;-17,017731254005554;0,9738090390102847;27,588732566301463;37,87347025971251;88,35108493301188
12:28:38.344;0;Mov;1;22872;9,97;-16,205425809503463;13,098569063386945;-13,869002159184545;13,098569063386945;-16,205425809503463;-13,869002159184545;79,3786431470687;121,8298898281808;135,41062654499953
12:28:38.344;0;Mov;1;22873;9,97;-12,42384105960265;-12,898782502212592;14,791369747001557;-12,898782502212592;-12,42384105960265;14,791369747001557;81,05716116824854;257,0574053163244;85,26871547593616
12:28:38.345;0;Mov;1;22874;9,97;7,875411523026216;-17,980773339030122;29,721512878810998;-17,980773339030122;7,875411523026216;29,721512878810998;86,64204840235602;267,98303170873135;9,704886013367107
12:28:38.345;0;Mov;1;22875;9,97;22,04947622608112;-1,9595813337351604;12,00632400738548;-1,9595813337351604;22,04947622608112;12,00632400738548;91,1893063142796;190,64912869655447;2,044740134891812
12:28:38.386;0;Wrist;1;3634;9,99;11,840034371471297;6,469728976561785;13,959923474837488;6,469728976561785;11,840034371471297;13,959923474837488;13,153477584154789;-175,0236518448439;-54,353465376751
12:28:38.386;0;Wrist;1;3635;9,99;13,41200655384991;7,077462176122318;14,526981223487045;7,077462176122318;13,41200655384991;14,526981223487045;-6,622516556291391;-177,89239173558764;-32,47169408246101
12:28:38.386;0;Wrist;1;3636;9,99;15,121555223242897;7,6636617061372725;16,075027848139896;7,6636617061372725;15,121555223242897;16,075027848139896;-40,43702505569628;-176,1223181859798;-7,629627368999298
12:28:38.386;0;Wrist;1;3637;9,99;14,761461607715079;8,071608821375165;14,913395146031068;8,071608821375165;14,761461607715079;14,913395146031068;-88,38160344248787;-181,06631672109134;22,06488235114597
12:28:38.386;0;Wrist;1;3638;9,99;11,726383442182684;8,716428685872982;12,056568918424023;8,716428685872982;11,726383442182684;12,056568918424023;-128,63551744132818;-186,77327799310282;43,70250556962798
12:28:38.402;0;Mov;1;22876;9,96;10,856654560991242;7,861055425428022;-5,554539914395581;7,861055425428022;10,856654560991242;-5,554539914395581;67,17123935666982;174,32172612689595;43,977172154911955
12:28:38.403;0;Mov;1;22877;9,96;-12,07331785790582;0;1,7203162194433423;0,28352917235709707;-12,07331785790582;1,7203162194433423;65,126499221778;216,92556535538804;47,7919858394116
12:28:38.403;0;Mov;1;22878;9,96;-10,410425313577685;-4,877419545579394;-0,5036531013481551;-4,877419545579394;-10,410425313577685;-0,5036531013481551;114,62752159184545;240,30274361400188;11,780144657734915
12:28:38.403;0;Mov;1;22879;9,96;8,118265900143436;-6,720957346568194;12,561418500320444;-6,720957346568194;8,118265900143436;12,561418500320444;126,0719626453444;228,85830256050295;1,7700735496078372
12:28:38.403;0;Mov;1;22880;9,96;4,591497829371013;-4,6309763824884795;13,18231185338908;-4,6309763824884795;4,591497829371013;13,18231185338908;96,10278633991516;193,5483870967742;17,242957853938414
12:28:38.410;0;Wrist;1;3639;9,83;8,527408482619709;9,686648342844935;8,1553516113773;9,686648342844935;8,527408482619709;8,1553516113773;-133,57951597643972;-183,96557512131108;53,01065095980712
12:28:38.410;0;Wrist;1;3640;9,83;6,446998409222694;10,159196943571276;4,000512615588855;10,159196943571276;6,446998409222694;4,000512615588855;-112,36915189062167;-173,83342997528;54,17035431989502
12:28:38.410;0;Wrist;1;3641;9,83;5,160948419904172;9,892416531876583;2,923819839701529;9,892416531876583;5,160948419904172;2,923819839701529;-81,24027222510452;-165,71550645466476;49,9893185216834
12:28:38.410;0;Wrist;1;3642;9,83;5,413373210852382;9,933091029084139;4,934842982268746;9,933091029084139;5,413373210852382;4,934842982268746;-51,698355052339245;-161,71758171330913;45,22843104342784
12:28:38.410;0;Wrist;1;3643;9,83;6,543900875881222;9,998888935514389;6,932706686605426;9,998888935514389;6,543900875881222;6,932706686605426;-38,23969237342448;-160,10010071108127;47,853022858363595
12:28:38.432;0;Mov;1;22881;9,96;-5,974449808496353;-6,137150181585131;0;-6,137150181585131;-5,974449808496353;-0,38402051439901425;52,919095431379134;150,66988128299815;22,705771050141912
12:28:38.432;0;Mov;1;22882;9,96;0,9235633530877102;-1,24298229258858;0;-1,24298229258858;0,9235633530877102;0,473744932258446;40,98635822626423;116,27552110354931;26,367992187261574
12:28:38.432;0;Mov;1;22883;9,96;-0,9738090390102847;-6,090493579668569;5,595214888454848;-6,090493579668569;-0,9738090390102847;5,595214888454848;27,222510452589496;101,44352549821467;28,168584246345407
12:28:38.433;0;Mov;1;22884;9,96;0;-2,395043746375927;1,7645802179021577;-2,395043746375927;0,1411664204124958;1,7645802179021577;17,853328043458358;46,66280098879971;20,11169774468215
12:28:38.433;0;Mov;1;22885;9,96;0;-0,7285622968611714;0;-0,7285622968611714;-0,32061527103297527;0,12800683316579944;11,597033600878934;27,1919919431135;15,747550889614551
12:28:38.469;0;Wrist;1;3644;9,96;5,973253864406263;9,281093592638936;7,6361464087343975;9,281093592638936;5,973253864406263;7,6361464087343975;-37,26310007019257;-164,98306222724082;58,290353099154636
12:28:38.471;0;Wrist;1;3645;9,96;4,196710390789514;7,85866306039613;7,0248239463484605;7,85866306039613;4,196710390789514;7,0248239463484605;-35,27939695425275;-177,95342875453963;71,10812707907345
12:28:38.471;0;Wrist;1;3646;9,96;3,079342163991211;6,59653910565508;6,511600371562853;6,59653910565508;3,079342163991211;6,511600371562853;-27,06991790520951;-196,50868251594594;78,61568041016876
12:28:38.471;0;Wrist;1;3647;9,96;3,4334543900875882;4,65370647297586;7,486605712302011;4,65370647297586;3,4334543900875882;7,486605712302011;-17,883846552934354;-215,43015839106417;82,43049409466842
12:28:38.471;0;Wrist;1;3648;9,96;3,853364761040071;2,1677418877987;7,973509933774834;2,1677418877987;3,853364761040071;7,973509933774834;-15,503402813806574;-235,75548570207832;88,0153813287759
12:28:38.493;0;Mov;1;22886;9,96;0;-0,6256782619518113;0,930741342280343;-0,6256782619518113;0,43306986878948334;0,930741342280343;10,284737693411055;24,628437147129734;14,923551133762627
12:28:38.493;0;Mov;1;22887;9,96;0,5897884948080385;0;0,766844727069155;0,1339884610230949;0,5897884948080385;0,766844727069155;10,040589617603077;20,050660725730154;10,98666341135899
12:28:38.493;0;Mov;1;22888;9,96;0;0,6340525528733176;0;0,6340525528733176;-0,34932707878734703;0,34095278786584066;5,371257667775506;23,59080782494583;8,636738181707205
12:28:38.493;0;Mov;1;22889;9,96;0;-0,5096347292054506;0,7130100763534959;-0,5096347292054506;0,04306772280776963;0,7130100763534959;1,5259254737998595;28,2601397747734;9,704886013367107
12:28:38.493;0;Mov;1;22890;9,96;0;-1,0288399914548174;0,7788079827837459;-1,0288399914548174;0,03947874311306917;0,7788079827837459;-0,5798516800439466;25,666066469313638;7,17184972685934
12:28:38.529;0;Wrist;1;3649;9,51;3,203759928052614;0;7,340653801843318;-0,3062593522541734;3,203759928052614;7,340653801843318;-16,113773003326518;-256,2639240699484;93,4781945249794
12:28:38.529;0;Wrist;1;3650;9,51;2,0720358420819727;-2,3232642120883815;6,162273113956115;-2,3232642120883815;2,0720358420819727;6,162273113956115;-8,48414563432722;-273,2016968291269;96,49952696310312
12:28:38.529;0;Wrist;1;3651;9,51;1,1281350615710928;-3,532749460203864;4,841529778435621;-3,532749460203864;1,1281350615710928;4,841529778435621;5,096591082491531;-284,21887874996185;97,96441541795099
12:28:38.529;0;Wrist;1;3652;9,51;0;-4,114163544877468;4,5316815507980595;-4,114163544877468;0,23208716980403302;4,5316815507980595;14,404736472670674;-290,47517319254126;96,92678609576708
12:28:38.529;0;Wrist;1;3653;9,51;0;-4,818799687948241;5,438496143223365;-4,818799687948241;0,3816278513348033;5,438496143223365;15,472884304330577;-294,96139408551284;92,59315775017548
12:28:38.553;0;Mov;1;22891;9,6;0;-0,6005554487937559;0,7381328895115512;-0,6005554487937559;-0,41153599062128055;0,7381328895115512;-1,1902218695638904;20,75258644367809;3,3875545518356884
12:28:38.553;0;Mov;1;22892;9,6;-1,062337155140843;0;0,874514028500473;-0,17825251908837397;-1,062337155140843;0,874514028500473;1,1902218695638904;19,623401593066195;2,1057771538438064
12:28:38.553;0;Mov;1;22893;9,6;-1,5743644281975768;0;0,7632557026696066;0,015552232615238368;-1,5743644281975768;0,7632557026696066;8,48414563432722;20,75258644367809;4,24207281716361
12:28:38.553;0;Mov;1;22894;9,6;-1,682033729628895;0;0,6579790643024994;0,3828241828669088;-1,682033729628895;0,6579790643024994;15,533921323282572;23,68236335337382;7,9958494827112645
12:28:38.553;0;Mov;1;22895;9,6;-1,4977996869945371;0,6842982387958922;0,9917539225821711;0,6842982387958922;-1,4977996869945371;0,9917539225821711;23,102511673329875;30,76265755180517;12,756736960966826
12:28:38.571;0;Wrist;1;3654;9,66;1,074300410855434;-6,318991859187597;5,73997037797174;-6,318991859187597;1,074300410855434;5,73997037797174;10,467848750267036;-300,8209479049043;88,38160344248787
12:28:38.571;0;Wrist;1;3655;9,66;2,6498611407818844;-7,645716822565386;3,660756248664815;-7,645716822565386;2,6498611407818844;3,660756248664815;8,57570116275521;-306,2532425916318;86,82515945921202
12:28:38.571;0;Wrist;1;3656;9,66;5,371501815851314;-8,532194166386914;0,5694510077784051;-8,532194166386914;5,371501815851314;0,5694510077784051;7,5685903500473035;-301,9806512649922;91,95226905117954
12:28:38.571;0;Wrist;1;3657;9,66;6,0737451170384835;-8,987993827631458;0;-8,987993827631458;6,0737451170384835;0,11006195704472106;4,852443006683553;-290,9024323252052;104,73952452162236
12:28:38.572;0;Wrist;1;3658;9,66;4,852296613208411;-9,751250305185096;2,024182819223609;-9,751250305185096;4,852296613208411;2,024182819223609;15,900143436994536;-282,02154606769005;119,78514969328899
12:28:38.586;0;Mov;1;22896;9,72;-1,0073062026963102;0,8541764818643758;0,9020295047227394;0,8541764818643758;-1,0073062026963102;0,9020295047227394;30,33539841914121;41,81035798211615;18,06695760979034
12:28:38.586;0;Mov;1;22897;9,72;-0,827857307370983;0;1,320743454733421;0,20816065837485123;-0,827857307370983;1,320743454733421;39,429914242988374;53,10220648823511;24,384289071321756
12:28:38.586;0;Mov;1;22898;9,72;0;-1,9547960076067386;0,7165990411465804;-1,9547960076067386;-0,18423414694566942;0,7165990411465804;51,1490218817713;59,26694540238655;31,28147221289712
12:28:38.586;0;Mov;1;22899;9,72;1,9583850320062868;0;0,9833796316606647;0,1076693014313181;1,9583850320062868;0,9833796316606647;57,008575701162755;45,77776421399579;32,80739768669698
12:28:38.586;0;Mov;1;22900;9,72;0,835035236957152;3,1463362529374064;2,7611194666127505;3,1463362529374064;0,835035236957152;2,7611194666127505;39,277321695608386;55,23850215155492;32,86843470564897
12:28:38.619;0;Wrist;1;3659;9,84;2,6785730975524156;-11,088742103335672;3,1606921121097447;-11,088742103335672;2,6785730975524156;3,1606921121097447;43,214209418012025;-281,19754631183815;132,17566454054383
12:28:38.619;0;Wrist;1;3660;9,84;0;-12,43460837122715;3,0255075132755516;-12,43460837122715;0,3744499217486343;3,0255075132755516;73,8853114413892;-283,9136936552019;138,79818109683524
12:28:38.619;0;Wrist;1;3661;9,84;-1,42123482657857;-13,746977713858454;3,9550524346140934;-13,746977713858454;-1,42123482657857;3,9550524346140934;90,36530655842769;-282,14362010559404;139,1338847010712
12:28:38.619;0;Wrist;1;3662;9,84;-3,0243110923337504;-14,907413518173772;6,279512829218421;-14,907413518173772;-3,0243110923337504;6,279512829218421;92,04382457960753;-276,7723624378185;137,24173711355937
12:28:38.619;0;Wrist;1;3663;9,84;-4,3426618243964965;-15,886007644886623;7,879000308999909;-15,886007644886623;-4,3426618243964965;7,879000308999909;79,77538377025667;-275,3379924924467;132,14514603106784
12:28:38.643;0;Mov;1;22901;9,93;1,0934415961561936;3,494467089602344;1,3853450594347971;3,494467089602344;1,0934415961561936;1,3853450594347971;18,005920590838343;112,15552232428968;42,3596911526841
12:28:38.643;0;Mov;1;22902;9,93;1,216663177701651;3,8318308530686362;3,521982625431074;3,8318308530686362;1,216663177701651;3,521982625431074;-3,7537766655476545;169,83550523392438;47,853022858363595
12:28:38.643;0;Mov;1;22903;9,93;-1,015680434011353;5,244691209906308;1,8112369390316476;5,244691209906308;-1,015680434011353;1,8112369390316476;7,93481246375927;210,48615985595262;44,5570238349559
12:28:38.643;0;Mov;1;22904;9,93;-0,9809869685964537;3,1702627643665884;1,8842127750480666;3,1702627643665884;-0,9809869685964537;1,8842127750480666;42,05450605792413;245,3993346964934;47,456282235175635
12:28:38.644;0;Mov;1;22905;9,93;-1,4690878494369335;0;4,707541123691519;-0,32420423582605973;-1,4690878494369335;4,707541123691519;32,86843470564897;264,41236610003966;52,2171697134312
12:28:38.679;0;Wrist;1;3664;9,96;-4,743430890835292;-17,126596499526965;7,936424222540971;-17,126596499526965;-4,743430890835292;7,936424222540971;58,50398266548662;-272,16406750694296;122,10455641346476
12:28:38.679;0;Wrist;1;3665;9,96;-4,70873754463332;-19,25007438886685;7,216236037781915;-19,25007438886685;-4,70873754463332;7,216236037781915;38,23969237342448;-263,67992187261575;108,24915311136203
12:28:38.679;0;Wrist;1;3666;9,96;-4,388122482222968;-21,673831522568438;5,469600703451643;-21,673831522568438;-4,388122482222968;5,469600703451643;25,97125156407361;-253,2120731223487;92,56263924069948
12:28:38.679;0;Wrist;1;3667;9,96;-3,8390089018677327;-24,296176412244026;2,9070711386455885;-24,296176412244026;-3,8390089018677327;2,9070711386455885;23,010956144901883;-238,50215155491807;77,1507919553209
12:28:38.679;0;Wrist;1;3668;9,96;-3,2504165299691765;-26,175603503524886;0;-26,175603503524886;-3,2504165299691765;-0,3086520153183844;22,003845332193976;-218,2988982818079;63,50901821955016
12:28:38.703;0;Mov;1;22906;9,94;-1,0348216193121127;3,824653042695395;9,540696432386243;3,824653042695395;-1,0348216193121127;9,540696432386243;-14,526810510574663;277,3216956083865;64,69924008911404
12:28:38.703;0;Mov;1;22907;9,94;-3,7648367641224403;1,3709890810495315;9,698611598559527;1,3709890810495315;-3,7648367641224403;9,698611598559527;-28,748435926389355;371,1966307565539;84,8719748527482
12:28:38.703;0;Mov;1;22908;9,94;-2,4524674214911344;1,3255287808618428;7,0798550180059205;1,3255287808618428;-2,4524674214911344;7,0798550180059205;3,2349620044557024;454,4511246070742;96,10278633991516
12:28:38.703;0;Mov;1;22909;9,94;-0,5778252390934476;2,7946166302987763;5,803375442518387;2,7946166302987763;-0,5778252390934476;5,803375442518387;2,4719992675557725;504,01318399609363;110,66011535996581
12:28:38.703;0;Mov;1;22910;9,94;-1,0216620618686483;2,5613331438642537;6,488869804223762;2,5613331438642537;-1,0216620618686483;6,488869804223762;2,9602954191717274;529,5266579180272;121,15848261970885
12:28:38.710;0;Wrist;1;3669;9,84;-1,7932920554597613;-26,88981101413007;-3,4669515537736135;-26,88981101413007;-1,7932920554597613;-3,4669515537736135;14,526810510574663;-188,0245368816187;51,63731803338725
12:28:38.710;0;Wrist;1;3670;9,84;-0,7512924469550157;-26,612262337107456;-5,731595908230842;-26,612262337107456;-0,7512924469550157;-5,731595908230842;3,6011841181676685;-150,0900296029542;43,519394512771996
12:28:38.710;0;Wrist;1;3671;9,84;-1,4595171971800898;-26,284468749046297;-7,098995845667898;-26,284468749046297;-1,4595171971800898;-7,098995845667898;3,295999023407697;-114,0476699118015;42,237617114780114
12:28:38.710;0;Wrist;1;3672;9,84;-3,0745567186498612;-27,423371837519454;-6,161076693014313;-27,423371837519454;-3,0745567186498612;-6,161076693014313;15,717032380138553;-84,8414563432722;40,83376567888424
12:28:38.710;0;Wrist;1;3673;9,84;-2,848451281014435;-28,070583590197455;-6,25678273873104;-28,070583590197455;-2,848451281014435;-6,25678273873104;21,759697256385998;-59,57213049714652;30,51850947599719
12:28:38.735;0;Mov;1;22911;9,98;-0,9247597144230476;2,26105533005768;4,141679319132054;2,26105533005768;-0,9247597144230476;4,141679319132054;11,993774224066897;543,1073946348461;130,46662800988798
12:28:38.735;0;Mov;1;22912;9,98;-1,8100406373027742;1,006109781754509;4,211066011535997;1,006109781754509;-1,8100406373027742;4,211066011535997;4,333628345591602;521,561326944792;135,8378856776635
12:28:38.736;0;Mov;1;22913;9,98;-1,6401623346278267;-2,2024354724265267;7,466267986846522;-2,2024354724265267;-1,6401623346278267;7,466267986846522;-41,261024811548204;452,0401623584704;147,31284524063844
12:28:38.736;0;Mov;1;22914;9,98;5,66340515991699;-6,082119109927671;26,82401310769982;-6,082119109927671;5,66340515991699;26,82401310769982;-110,75167088839382;305,30716879787593;196,9054231391339
12:28:38.736;0;Mov;1;22915;9,98;-3,8892545281838435;2,0768212874233223;31,671523560289316;2,0768212874233223;-3,8892545281838435;31,671523560289316;-72,57301553392132;182,7143162327952;198,33979308450574
12:28:38.792;0;Mov;1;22916;9,95;-9,968980796227912;6,377611716818751;21,166589098788414;6,377611716818751;-9,968980796227912;21,166589098788414;-59,29746391186254;134,06781212805566;187,23105563524277
12:28:38.792;0;Mov;1;22917;9,95;-10,41521099734489;9,422260773033845;14,330784401989806;9,422260773033845;-10,41521099734489;14,330784401989806;-28,229621265297403;80,84353160191657;171,39194921720022
12:28:38.792;0;Mov;1;22918;9,95;-12,001538323618275;11,412945951719719;10,277633556627094;11,412945951719719;-12,001538323618275;10,277633556627094;-7,38547929319132;60,30457472457045;146,39728995635852
12:28:38.792;0;Mov;1;22919;9,95;-13,65605639820551;11,838838427381207;9,447383228553118;11,838838427381207;-13,65605639820551;9,447383228553118;6,683553575243385;54,01776177251503;117,92352061525315
12:28:38.792;0;Mov;1;22920;9,95;-14,117838641010772;11,28254703665273;12,043409718619342;11,28254703665273;-14,117838641010772;12,043409718619342;19,89806817835017;44,77065340128788;86,88619647816401
12:28:38.800;0;Wrist;1;3674;10,09;-4,008887085329753;-27,05370685445723;-9,199743644520401;-27,05370685445723;-4,008887085329753;-9,199743644520401;11,108737449262978;-35,24887844477676;14,709921567430646
12:28:38.800;0;Wrist;1;3675;10,09;-4,323520519882809;-25,380046998504593;-9,907968573564867;-25,380046998504593;-4,323520519882809;-9,907968573564867;3,326517532883694;-5,920590838343455;-6,988738670003357
12:28:38.800;0;Wrist;1;3676;10,09;-1,8399487765892515;-23,205128254036072;-7,870626316110721;-23,205128254036072;-1,8399487765892515;-7,870626316110721;-2,685628833887753;23,71288186284982;-29,66399121066927
12:28:38.800;0;Wrist;1;3677;10,09;0;-20,51219786675619;-6,78316599017304;-20,51219786675619;0,290707131746498;-6,78316599017304;-9,491256447035127;44,25183874019593;-44,00769066438795
12:28:38.802;0;Wrist;1;3678;10,09;-4,173979823450423;-31,337748344370862;-26,036830118717003;-31,337748344370862;-4,173979823450423;-26,036830118717003;-15,625476851710562;127,78099917600025;-69,67375713370159
12:28:38.830;0;Wrist;1;3679;9,96;-1,670070473914304;-32,532879879146705;-28,358897671437727;-32,532879879146705;-1,670070473914304;-28,358897671437727;-3,448591570787683;311,53294473097935;-155,70543534653768
12:28:38.830;0;Wrist;1;3680;9,96;14,76265755180517;0;29,367400891140477;0,415124985217597;14,76265755180517;29,367400891140477;-60,8844264046144;189,33683278908657;-168,2485427411725
12:28:38.830;0;Wrist;1;3681;9,96;19,83149014252144;7,506942960905789;21,9741088595233;7,506942960905789;19,83149014252144;21,9741088595233;26,0933256019776;274,23932615131076;-81,02664265877254
12:28:38.830;0;Wrist;1;3682;9,96;9,126768166142766;-1,0946378978850673;10,557573168126469;-1,0946378978850673;9,126768166142766;10,557573168126469;9,216589861751151;381,023590807825;5,035554063539537
12:28:38.830;0;Wrist;1;3683;9,96;-1,7418500082018493;-6,624054879909665;23,09386921292764;-6,624054879909665;-1,7418500082018493;23,09386921292764;-120,7922605059969;417,5542466505936;38,39228492080447
12:28:38.862;0;Wrist;1;3684;9,81;-15,79389038514359;2,287374444944609;11,342363315225684;2,287374444944609;-15,79389038514359;11,342363315225684;-120,48707541123692;402,66121402630694;-6,95822016052736
12:28:38.862;0;Wrist;1;3685;9,81;4,045973273415326;-14,209954947050386;11,73356101413007;-14,209954947050386;4,045973273415326;11,73356101413007;-41,779839472640155;419,5074312570574;-34,94369335001679
12:28:38.862;0;Wrist;1;3686;9,81;15,68622108371227;-16,547576448866238;12,56740012817774;-16,547576448866238;15,68622108371227;12,56740012817774;-24,68947416608173;259,1631824701682;-42,05450605792413
12:28:38.862;0;Wrist;1;3687;9,81;-6,425464739677114;-4,964751121555223;7,864644688253426;-4,964751121555223;-6,425464739677114;7,864644688253426;-62,532425916318246;84,17004913480025;-37,75139622180853
12:28:38.862;0;Wrist;1;3688;9,81;0;-0,8099124237990967;1,8686606141468551;-0,8099124237990967;-0,1674855800042726;1,8686606141468551;-30,671102023377177;52,461317789239175;-21,30191961424604
12:28:38.882;0;Mov;1;22921;10,08;-14,397778252510147;9,686648342844935;17,358684041871395;9,686648342844935;-14,397778252510147;17,358684041871395;28,290658284249396;30,701620532853177;54,23139133884701
12:28:38.882;0;Mov;1;22922;10,08;-15,042598117007966;8,079983291116061;22,725400173955503;8,079983291116061;-15,042598117007966;22,725400173955503;34,54695272682882;5,3102206488235115;18,768883327738273
12:28:38.882;0;Mov;1;22923;10,08;-16,008032090212716;7,425593012787256;26,191156498916595;7,425593012787256;-16,008032090212716;26,191156498916595;46,26606036561174;-31,09836115604114;-19,531846064638202
12:28:38.882;0;Mov;1;22924;10,08;-15,079683828241828;7,829950865199744;24,940996276741846;7,829950865199744;-15,079683828241828;24,940996276741846;72,8476821192053;-75,25864436780908;-58,96176030762658
12:28:38.883;0;Mov;1;22925;10,08;-10,988250373851741;8,373083056123539;20,024098178044984;8,373083056123539;-10,988250373851741;20,024098178044984;101,74871059297463;-117,06900234992523;-89,87701040681173
12:28:38.884;0;Mov;1;22926;9,95;-6,965007667775506;8,635077784051028;15,25674077578051;8,635077784051028;-6,965007667775506;15,25674077578051;106,75374614703819;-146,42780846583452;-101,74871059297463
12:28:38.884;0;Mov;1;22927;9,95;-4,837940515610217;8,030933370464187;13,660842081972717;8,030933370464187;-4,837940515610217;13,660842081972717;80,05005035554063;-164,58632160405287;-101,19937742240668
12:28:38.884;0;Mov;1;22928;9,95;-3,7863704336680195;6,364452040162359;13,733817560350353;6,364452040162359;-3,7863704336680195;13,733817560350353;40,07080294198431;-180,5780205694754;-96,6521195104831
12:28:38.884;0;Mov;1;22929;9,95;-3,3724419289986876;4,8714379177220986;14,42170476393933;4,8714379177220986;-3,3724419289986876;14,42170476393933;5,066072573015534;-202,2156437879574;-88,59523300881985
12:28:38.884;0;Mov;1;22930;9,95;-3,779192623294778;4,5986754013184;13,188293481246376;4,5986754013184;-3,779192623294778;13,188293481246376;-18,67732779931028;-225,53178502761926;-79,95849482711264
12:28:38.928;0;Wrist;1;3689;9,99;-0,5718436112361522;0;1,9296731944486831;0,013159581658590389;-0,5718436112361522;1,9296731944486831;-19,074068422498247;39,735099337748345;-15,808587908566546
12:28:38.928;0;Wrist;1;3690;9,99;-0,7321512616542558;-0,7512924469550157;1,794488357188635;-0,7512924469550157;-0,7321512616542558;1,794488357188635;-12,512588885158848;39,643543809320356;-11,810663167210913
12:28:38.928;0;Wrist;1;3691;9,99;0;-2,1629566808832057;2,3065157494582964;-2,1629566808832057;-0,36487929929502244;2,3065157494582964;-7,446516312143315;34,11969359416486;-5,920590838343455
12:28:38.928;0;Wrist;1;3692;9,99;1,174791782700583;-1,2645162005600146;1,5348857558671833;-1,2645162005600146;1,174791782700583;1,5348857558671833;-4,333628345591602;22,94991912594989;-0,09155552842799158
12:28:38.928;0;Wrist;1;3693;9,99;0,9666311094241157;0,5574877520638142;0,654390099509415;0,5574877520638142;0,9666311094241157;0,654390099509415;-7,751701406903287;18,58577227088229;-1,9531846064638203
12:28:38.943;0;Mov;1;22931;9,96;-4,085451826532792;5,108310190130314;9,368426122318185;5,108310190130314;-4,085451826532792;9,368426122318185;-27,985473189489426;-243,3545945616016;-72,66457106234931
12:28:38.943;0;Mov;1;22932;9,96;-3,83063467055269;5,585643997772149;6,336936742759484;5,585643997772149;-3,83063467055269;6,336936742759484;-25,818659016693626;-253,05948057496872;-67,20175786614581
12:28:38.943;0;Mov;1;22933;9,96;-3,2647726275673694;5,053279118472854;7,075069334238716;5,053279118472854;-3,2647726275673694;7,075069334238716;-23,957029938657797;-259,2242194891202;-61,76946317941832
12:28:38.943;0;Mov;1;22934;9,96;-2,982439697332682;3,65477462080752;9,282290490432448;3,65477462080752;-2,982439697332682;9,282290490432448;-30,915250099185155;-270,3939939573351;-56,245612964262826
12:28:38.944;0;Mov;1;22935;9,96;-2,8927152794732507;1,9512071024201179;9,728519737846003;1,9512071024201179;-2,8927152794732507;9,728519737846003;-43,45835749382;-288,9187292092654;-51,42368846705527
12:28:38.979;0;Wrist;1;3694;9,96;0;0;1,0515702011551256;0,2464430736812189;0,43306986878948334;1,0515702011551256;-12,17688528092288;20,691549424726098;-5,829035309915464
12:28:38.980;0;Wrist;1;3695;9,96;0,6256782619518113;0,8673360393078402;0,5598803555215613;0,8673360393078402;0,6256782619518113;0,5598803555215613;-12,72621845149083;22,583697012237923;-7,232886745811334
12:28:38.980;0;Wrist;1;3696;9,96;0,6998504593035676;0;0,8469984926717429;0,3696645956202124;0,6998504593035676;0,8469984926717429;-14,89303262428663;25,63554795983764;-9,643848994415112
12:28:38.980;0;Wrist;1;3697;9,96;0,7201880059396649;0;0,9762017020744956;0,07895748622613834;0,7201880059396649;0,9762017020744956;-15,2287362285226;26,764732810449537;-11,444441053498947
12:28:38.980;0;Wrist;1;3698;9,96;0,6854945405247658;0;0,6185003323656423;0,16030763551648763;0,6854945405247658;0,6185003323656423;-15,961180455946531;25,177770317697682;-11,352885525070956
12:28:39.002;0;Mov;1;22936;9,95;-3,1415510460219123;0;8,261824968718528;0,4534073856223487;-3,1415510460219123;8,261824968718528;-55,60472426526688;-307,5350199896237;-45,258949552903836
12:28:39.002;0;Mov;1;22937;9,95;-3,494467089602344;-0,701046820638905;6,298654133732109;-0,701046820638905;-3,494467089602344;6,298654133732109;-61,464278084658346;-318,9794610431226;-38,39228492080447
12:28:39.003;0;Mov;1;22938;9,95;-2,860414536729026;-1,409271570863979;4,867848654896695;-1,409271570863979;-2,860414536729026;4,867848654896695;-63,661610766930146;-323,9844965971862;-30,64058351390118
12:28:39.003;0;Mov;1;22939;9,95;-2,2921598902859586;-2,006237935651723;4,541251964629048;-2,006237935651723;-2,2921598902859586;4,541251964629048;-74,19049653614917;-326,45649586474195;-21,05777153843806
12:28:39.003;0;Mov;1;22940;9,95;-2,434522537919248;-2,9465499301889095;4,464687223426008;-2,9465499301889095;-2,434522537919248;4,464687223426008;-90,76204718161566;-328,9590136417737;-11,53599658192694
12:28:39.032;0;Mov;1;22941;9,93;-2,7898311849574267;-3,630848109378338;3,80311913472396;-3,630848109378338;-2,7898311849574267;3,80311913472396;-107,08944975127415;-332,6212347788934;-3,967406231879635
12:28:39.032;0;Mov;1;22942;9,93;-4,162016567735832;-4,372569963682974;2,8496474635303812;-4,372569963682974;-4,162016567735832;2,8496474635303812;-120,51759392071291;-335,9172338023011;-1,1291848506118962
12:28:39.032;0;Mov;1;22943;9,93;-4,24815219962157;-4,65370647297586;2,0253792401654103;-4,65370647297586;-4,24815219962157;2,0253792401654103;-131,3211462752159;-338,2671590319529;-9,552293465987121
12:28:39.032;0;Mov;1;22944;9,93;-4,360606707968383;-5,5449690237128815;3,4860928582873014;-5,5449690237128815;-4,360606707968383;3,4860928582873014;-147,70958586382642;-336,893826105533;-27,405621509445478
12:28:39.032;0;Mov;1;22945;9,93;-4,3187353129673145;-7,227002872554705;6,405127014221625;-7,227002872554705;-4,3187353129673145;6,405127014221625;-168,15698721274453;-335,7951597643971;-54,506057924130985
12:28:39.051;0;Wrist;1;3699;10;0,9750053407391583;0;0,8135013885921811;-0,38402051439901425;0,9750053407391583;0,8135013885921811;-19,867549668874172;23,957029938657797;-11,53599658192694
12:28:39.051;0;Wrist;1;3700;10;1,191540245330668;0;1,2764794562746056;-0,05144199882766007;1,191540245330668;1,2764794562746056;-24,048585467085786;22,8278450880459;-13,672292245246743
12:28:39.051;0;Wrist;1;3701;10;0;0;1,902157658619953;0,4342662003215888;-0,4270882409321879;1,902157658619953;-25,177770317697682;24,750511185033723;-14,526810510574663
12:28:39.051;0;Wrist;1;3702;10;0;0,5718436112361522;2,6642169999542222;0,5718436112361522;-0,2009826989854503;2,6642169999542222;-19,5623645741142;35,035248878444776;-11,139255958738975
12:28:39.051;0;Wrist;1;3703;10;-0,9343303070734276;0,8111087255279702;3,39158299508652;0,8111087255279702;-0,9343303070734276;3,39158299508652;-12,421033356730858;57,100131229590744;-11,352885525070956
12:28:39.070;0;Wrist;1;3704;9,96;-1,0814783404416028;1,5301004297387615;3,828241828669088;1,5301004297387615;-1,0814783404416028;3,828241828669088;3,9979247413556322;91,70812097537156;-13,092440565202795
12:28:39.070;0;Wrist;1;3705;9,96;-1,0240546653263956;2,325657053971984;2,7192480716116827;2,325657053971984;-1,0240546653263956;2,7192480716116827;38,17865535447249;135,25803399761955;-19,074068422498247
12:28:39.070;0;Wrist;1;3706;9,96;-1,5205297774819178;2,5314250045777764;0,7608630992118595;2,5314250045777764;-1,5205297774819178;0,7608630992118595;73,73271889400921;158,8488418225654;-26,947843867305522
12:28:39.070;0;Wrist;1;3707;9,96;0,9702200742172002;4,695577867976928;1,6939969853434858;4,695577867976928;0,9702200742172002;1,6939969853434858;69,91790520950957;162,0227668080691;-29,847102267525255
12:28:39.070;0;Wrist;1;3708;9,96;0;9,014313180944242;4,848707827234718;9,014313180944242;0,16150395214697713;4,848707827234718;66,56086916714987;181,06631672109134;-44,16028321176794
12:28:39.093;0;Mov;1;22946;9,96;-3,4884854617450483;-9,851741080965606;8,227131145664845;-9,851741080965606;-3,4884854617450483;8,227131145664845;-181,85979796746727;-336,863307596057;-89,69389934995574
12:28:39.093;0;Mov;1;22947;9,96;-1,3303141069902646;-12,835377437665944;8,881521423993652;-12,835377437665944;-1,3303141069902646;8,881521423993652;-187,87194433423872;-336,1308633686331;-126,59077730643635
12:28:39.093;0;Mov;1;22948;9,96;2,5362102114932705;-16,30831133457442;8,928177549058503;-16,30831133457442;2,5362102114932705;8,928177549058503;-190,58809167760248;-330,2407910397656;-158,02484206671346
12:28:39.093;0;Mov;1;22949;9,96;8,087160863063447;-20,02050843836787;7,884981936857204;-20,02050843836787;8,087160863063447;7,884981936857204;-189,64201788384656;-321,0547196874905;-174,10809656056398
12:28:39.093;0;Mov;1;22950;9,96;13,825934820093387;-23,008930478835413;6,2077332949308754;-23,008930478835413;13,825934820093387;6,2077332949308754;-188,23816644795068;-309,36613055818356;-167,45506149479658
12:28:39.152;0;Mov;1;22951;9,96;17,382610553300577;-25,92317918942839;4,956377128666036;-25,92317918942839;17,382610553300577;4,956377128666036;-186,74275948362683;-292,1536912137211;-141,331217383343
12:28:39.152;0;Mov;1;22952;9,96;16,895706808679464;-28,332579271828365;3,5040377418591877;-28,332579271828365;16,895706808679464;3,5040377418591877;-164,43372905667286;-267,28110599078343;-103,85448774681845
12:28:39.152;0;Mov;1;22953;9,96;14,51023323770867;-30,65225493636891;0;-30,65225493636891;14,51023323770867;-0,1315958128604999;-108,92056031983398;-231,6354869228187;-64,91286965544603
12:28:39.152;0;Mov;1;22954;9,96;11,787395664845729;-32,23140278328806;-5,1154882389294105;-32,23140278328806;11,787395664845729;-5,1154882389294105;-44,98428296761986;-190,0692770165105;-34,821619312112794
12:28:39.152;0;Mov;1;22955;9,96;8,691305276650288;-33,365520187994015;-8,663789979247413;-33,365520187994015;8,691305276650288;-8,663789979247413;-7,446516312143315;-143,3759575182348;-19,318216498306224
12:28:39.160;0;Wrist;1;3709;9,97;-2,207220679342021;7,005682641834773;8,042896626178777;7,005682641834773;-2,207220679342021;8,042896626178777;103,2441175572985;251,0757774590289;-67,4459059419538
12:28:39.161;0;Wrist;1;3710;9,97;0,8685324006431776;3,4011536473433637;8,630293053987243;3,4011536473433637;0,8685324006431776;8,630293053987243;159,9475081637013;370,73885311441387;-88,77834406567584
12:28:39.161;0;Wrist;1;3711;9,97;1,015680434011353;6,970989295632801;7,223414086581012;6,970989295632801;1,015680434011353;7,223414086581012;196,8749046296579;487,74681844538713;-112,49122592852565
12:28:39.161;0;Wrist;1;3712;9,97;-1,1723990600299081;5,885921811578722;6,0426405568102055;5,885921811578722;-1,1723990600299081;6,0426405568102055;197,60734885708183;570,6961272011475;-137,45536667989134
12:28:39.161;0;Wrist;1;3713;9,97;0;3,177440813165685;5,769878517258217;3,177440813165685;0,40435806103511157;5,769878517258217;184,728537858211;609,5156712546159;-155,2171391949217
12:28:39.162;0;Wrist;1;3714;9,96;-4,755394146549882;1,4666951267662587;1,7107455671864986;1,4666951267662587;-4,755394146549882;1,7107455671864986;168,00439466536454;651,0208441419721;-183,90453810235908
12:28:39.163;0;Wrist;1;3715;9,96;-8,381457525864437;-17,39816354869228;10,524076242866299;-17,39816354869228;-8,381457525864437;10,524076242866299;166,81417279580066;644,1541795098727;-264,47340311899165
12:28:39.163;0;Wrist;1;3716;9,96;7,143260082552568;-10,309933584093752;33,11907940916166;-10,309933584093752;7,143260082552568;33,11907940916166;66,3167210913419;324,0455336161382;-278,45088045899837
12:28:39.163;0;Wrist;1;3717;9,96;4,721897221289712;9,894809373760186;28,596966841639453;9,894809373760186;4,721897221289712;28,596966841639453;43,94665364543596;94,69893490401928;-248,75637073885312
12:28:39.163;0;Wrist;1;3718;9,96;8,007006859035005;7,304764034699545;17,229482024597917;7,304764034699545;8,007006859035005;17,229482024597917;51,88146610919523;100,98574785607471;-240,91311380352184
12:28:39.182;0;Mov;1;22956;9,96;6,747276223029267;-33,57248527481918;-11,90822511978515;-33,57248527481918;6,747276223029267;-11,90822511978515;-1,7090365306558428;-100,89419232764672;-17,548142948698384
12:28:39.183;0;Mov;1;22957;9,96;7,422004226813563;-32,58073290200507;-14,920572717978454;-32,58073290200507;7,422004226813563;-14,920572717978454;-19,65392010254219;-62,623981444746235;-23,529770805993834
12:28:39.183;0;Mov;1;22958;9,96;7,941209429456466;-31,542321543015838;-14,83922276985992;-31,542321543015838;7,941209429456466;-14,83922276985992;-44,282357249671925;-21,30191961424604;-30,671102023377177
12:28:39.183;0;Mov;1;22959;9,96;7,459089938047426;-29,778937269203773;-12,341295167394025;-29,778937269203773;7,459089938047426;-12,341295167394025;-41,59672841578417;13,946958830530717;-35,27939695425275
12:28:39.183;0;Mov;1;22960;9,96;9,278701704458754;-26,60508476516007;-11,255030785546435;-26,60508476516007;9,278701704458754;-11,255030785546435;-23,407696768089846;46,113467818231754;-34,66902676473281
12:28:39.220;0;Wrist;1;3719;9,96;9,453364856410413;10,760948515274514;10,083828623310037;10,760948515274514;9,453364856410413;10,083828623310037;16,84621723075045;63,63109225745415;-221,8085268715476
12:28:39.220;0;Wrist;1;3720;9,96;9,691434026612141;12,142704550309762;7,555992404705954;12,142704550309762;9,691434026612141;7,555992404705954;-4,577776421399578;44,434949797051914;-196,60023804437392
12:28:39.220;0;Wrist;1;3721;9,96;10,1400561159093;13,847468489638967;6,6778895306253245;13,847468489638967;10,1400561159093;6,6778895306253245;-15,350810266426588;40,16235847041231;-168,82839442121647
12:28:39.220;0;Wrist;1;3722;9,96;11,444050988799708;15,067720572527238;6,277120464186529;15,067720572527238;11,444050988799708;6,277120464186529;-23,04147465437788;46,7543565172277;-143,5895870845668
12:28:39.220;0;Wrist;1;3723;9,96;12,3580431531724;16,108523819696646;7,443537896359142;16,108523819696646;12,3580431531724;7,443537896359142;-37,29361857966857;50,263985106967375;-116,67226172673726
12:28:39.243;0;Mov;1;22961;9,96;10,150822473830377;-23,415681173131503;-9,387566949980163;-23,415681173131503;10,150822473830377;-9,387566949980163;-21,85125278481399;71,87108981597339;-25,11673329874569
12:28:39.243;0;Mov;1;22962;9,96;9,464132168034913;-20,25140003662221;-9,687844286935027;-20,25140003662221;9,464132168034913;-9,687844286935027;-35,55406353953673;91,76915799432356;-9,399700918607135
12:28:39.243;0;Mov;1;22963;9,96;9,565819841608937;-26,875453962828455;-28,083742790002137;-26,875453962828455;9,565819841608937;-28,083742790002137;-22,461622974333935;168,85891293069247;24,384289071321756
12:28:39.243;0;Mov;1;22964;9,96;13,370135158848841;-19,290749839777824;-8,436488120670186;-19,290749839777824;13,370135158848841;-8,436488120670186;84,01745658742027;246,43696401867732;108,00500503555406
12:28:39.243;0;Mov;1;22965;9,96;1,5013885921811578;0,8027344942129276;29,93086985381634;0,8027344942129276;1,5013885921811578;29,93086985381634;118,83907589953307;216,04052858058412;123,75255592516862
12:28:39.250;0;Wrist;1;3724;9,83;12,725315294351024;16,48297448652608;9,4820770516068;16,48297448652608;12,725315294351024;9,4820770516068;-52,095095675527205;46,998504593035676;-88,59523300881985
12:28:39.250;0;Wrist;1;3725;9,83;12,509976691488388;16,467421491134374;11,564879490035707;16,467421491134374;12,509976691488388;11,564879490035707;-59,602649006622514;36,34754478591265;-59,93835261085849
12:28:39.250;0;Wrist;1;3726;9,83;11,879512924588763;15,70775475325785;14,70882290108951;15,70775475325785;11,879512924588763;14,70882290108951;-56,64235358745079;18,82992034669027;-32,50221259193701
12:28:39.250;0;Wrist;1;3727;9,83;12,021876049073763;15,04738380077517;19,28357226783044;15,04738380077517;12,021876049073763;19,28357226783044;-46,51020844141972;-5,035554063539537;-7,446516312143315
12:28:39.250;0;Wrist;1;3728;9,83;14,37863742484817;15,658705786309397;23,46592608417005;15,658705786309397;14,37863742484817;23,46592608417005;-44,373912778099914;-27,28354747154149;17,426068910794395
12:28:39.302;0;Mov;1;22966;9,96;-4,724289586321604;-1,8794275681325725;25,393206198309276;-1,8794275681325725;-4,724289586321604;25,393206198309276;83,19345683156834;327,73827326273386;71,07760856959746
12:28:39.302;0;Mov;1;22967;9,96;-15,326127468184454;-12,704977568895535;16,52843371379742;-12,704977568895535;-15,326127468184454;16,52843371379742;270,21088290047913;364,9403363139744;35,61510055848872
12:28:39.302;0;Mov;1;22968;9,96;12,06255054628132;1,4535355693227943;10,3841059602649;1,4535355693227943;12,06255054628132;10,3841059602649;284,98184148686175;340,49501022370066;12,543107394634847
12:28:39.303;0;Mov;1;22969;9,96;24,093997009186072;-8,4077759254738;28,323007904293956;-8,4077759254738;24,093997009186072;28,323007904293956;225,65385906552325;364,2078920865505;23,316141239661857
12:28:39.303;0;Mov;1;22970;9,96;-9,644776947843868;-20,650973158970917;4,299594008453627;-20,650973158970917;-9,644776947843868;4,299594008453627;122,25714896084476;279,91576891384625;28,870509964293344
12:28:39.332;0;Mov;1;22971;9,96;-3,9538560136722922;-12,398718604083376;4,7685538232062745;-12,398718604083376;-3,9538560136722922;4,7685538232062745;56,4897610400708;106,5095980712302;34,94369335001679
12:28:39.332;0;Mov;1;22972;9,96;7,3442425878170114;1,6461439624851222;3,1176245345927307;1,6461439624851222;7,3442425878170114;3,1176245345927307;6,134220404675435;44,77065340128788;25,513473921933652
12:28:39.332;0;Mov;1;22973;9,96;-1,682033729628895;-0,8996368416585284;0,9032258064516129;-0,8996368416585284;-1,682033729628895;0,9032258064516129;-7,599108859523301;63,41746269112217;9,735404522843105
12:28:39.332;0;Mov;1;22974;9,96;0;-1,2417859908597064;1,606665290154729;-1,2417859908597064;-0,2715659166425062;1,606665290154729;-14,709921567430646;58,900723288674584;11,597033600878934
12:28:39.332;0;Mov;1;22975;9,96;0;-1,6006836622974334;1,728690450758385;-1,6006836622974334;0,12681051653530992;1,728690450758385;-13,458662678914761;48,34131900997955;11,871700186162908
12:28:39.340;0;Wrist;1;3729;10,08;17,06678022095401;16,840676213873714;23,965990936002687;16,840676213873714;17,06678022095401;23,965990936002687;-69,97894222846156;-45,47257911923582;48,49391155735954
12:28:39.340;0;Wrist;1;3730;10,08;15,265114291817987;15,720914906765953;21,703739661854915;15,720914906765953;15,265114291817987;21,703739661854915;-119,72411267433698;-73,12234870448927;84,96353038117618
12:28:39.340;0;Wrist;1;3731;10,08;9,354070024719993;13,33663727988525;19,332621234778895;13,33663727988525;9,354070024719993;19,332621234778895;-154,91195410016175;-116,2144840845973;105,96026490066225
12:28:39.340;0;Wrist;1;3732;10,08;5,059260746330149;11,837641529587694;16,104935987426373;11,837641529587694;5,059260746330149;16,104935987426373;-135,8989226966155;-160,10010071108127;103,2746360667745
12:28:39.340;0;Wrist;1;3733;10,08;4,087844668416395;10,510917043061617;11,716813028351694;10,510917043061617;4,087844668416395;11,716813028351694;-71,56590472121341;-192,78542435987427;91,83019501327556
12:28:39.389;0;Wrist;1;3734;10,04;5,732792329172643;8,576458403271584;9,55026684621723;8,576458403271584;5,732792329172643;9,55026684621723;-10,65095980712302;-215,36912137211218;81,05716116824854
12:28:39.389;0;Wrist;1;3735;10,04;8,869558168279061;6,974578081606494;9,411493461409345;6,974578081606494;8,869558168279061;9,411493461409345;14,954069643238624;-232,30689413129062;79,83642078920866
12:28:39.389;0;Wrist;1;3736;10,04;10,701132236701559;5,600000095370342;9,891219634083072;5,600000095370342;10,701132236701559;9,891219634083072;3,936887722403638;-247,04733420819727;91,52500991851558
12:28:39.389;0;Wrist;1;3737;10,04;9,019098864711447;3,726554155095065;9,613672864467299;3,726554155095065;9,019098864711447;9,613672864467299;-17,09036530655843;-266,2739951780755;111,02633747367778
12:28:39.389;0;Wrist;1;3738;10,04;6,064174226355785;1,6796411261711477;8,767870494705038;1,6796411261711477;6,064174226355785;8,767870494705038;-20,050660725730154;-289,9868770409253;128,0861842707602
12:28:39.396;0;Mov;1;22976;9,97;0;-1,1317239667577135;1,3709890810495315;-1,1317239667577135;0,4246955778679769;1,3709890810495315;-11,291848506118962;35,8592486342967;7,538071840571306
12:28:39.397;0;Mov;1;22977;9,97;-0,5239905883777887;-0,7225806690038759;0,884084621150853;-0,7225806690038759;-0,5239905883777887;0,884084621150853;-7,5685903500473035;29,297769096957303;1,9837031159398175
12:28:39.397;0;Mov;1;22978;9,97;-1,648536685155797;0;0,881691958086642;-0,013159581658590389;-1,648536685155797;0,881691958086642;1,4343699453718681;26,032288583025604;1,8311105685598315
12:28:39.397;0;Mov;1;22979;9,97;-1,443965036278878;0,9247597144230476;0,957060457167272;0,9247597144230476;-1,443965036278878;0,957060457167272;12,115848261970886;27,03939939573351;6,225775933103427
12:28:39.397;0;Mov;1;22980;9,97;-1,179576989616077;0;1,1616321060441908;-0,12681051653530992;-1,179576989616077;1,1616321060441908;18,18903164769433;33,26517532883694;11,169774468214973
