Frecuencia (Hz);100
time;timespan;canal;id;sample;gap;accX;accY;accZ;rawAccX;rawAccY;rawAccZ;rawGirX;rawGirY;rawGirZ
12:27:49.801;0;Mov;1;21411;12,69;0;0;0;0,003588976900647469;0,003588976900647469;0,014355907602589877;0;-0,45777764213995786;-0,09155552842799158
12:27:49.801;0;Mov;1;21412;12,69;0;0;0;0,01674855762788686;0,01794488357188635;-0,010766930701942408;0;-0,3967406231879635;-0,12207403790398877
12:27:49.801;0;Mov;1;21413;12,69;0;0;0;0,004785302378971459;-0,00598162785729545;0;0,12207403790398877;-0,36622211371196634;-0,21362956633198035
12:27:49.801;0;Mov;1;21414;12,69;0;0;0;-0,0011963255947428648;0,0239265114291818;0,00837427881394343;0,061037018951994385;-0,3967406231879635;-0,15259254737998595
12:27:49.801;0;Mov;1;21415;12,69;0;0;0;0,004785302378971459;-0,013159581658590389;0,00598162785729545;0,09155552842799158;-0,3357036042359691;-0,21362956633198035
12:27:49.803;0;Wrist;1;2174;13,37;0;0;0;-0,014355907602589877;-0,004785302378971459;-0,00598162785729545;-0,030518509475997192;0,21362956633198035;-0,15259254737998595
12:27:49.803;0;Wrist;1;2175;13,37;0;0;0;0,01794488357188635;-0,0717795342875454;-0,00598162785729545;0,030518509475997192;0,15259254737998595;-0,12207403790398877
12:27:49.803;0;Wrist;1;2176;13,37;0;0;0;0,031104465230476736;-0,010766930701942408;-0,031104465230476736;0,09155552842799158;0;-0,030518509475997192
12:27:49.803;0;Wrist;1;2177;13,37;0;0;0;0,010766930701942408;-0,06220893046095347;-0,027515489261180266;0,12207403790398877;0,061037018951994385;-0,15259254737998595
12:27:49.803;0;Wrist;1;2178;13,37;0;0;0;0,0119632557145909;-0,06579790643024995;-0,02273018548518231;0,21362956633198035;0,3357036042359691;-0,09155552842799158
12:27:49.804;0;Mov;1;21416;11,36;0;0;0;0,01794488357188635;0,020337535459885328;0,003588976900647469;0,061037018951994385;-0,3967406231879635;-0,061037018951994385
12:27:49.804;0;Mov;1;21417;11,36;0;0;0;0,009570604757942918;-0,01794488357188635;-0,01794488357188635;0;-0,5493331705679495;-0,12207403790398877
12:27:49.804;0;Mov;1;21418;11,36;0;0;0;0,004785302378971459;0,00598162785729545;0,007177953801294938;0,12207403790398877;-0,4272591326639607;-0,09155552842799158
12:27:49.804;0;Mov;1;21419;11,36;0;0;0;-0,021533861403884816;-0,013159581658590389;0,0023926511894857296;0,09155552842799158;-0,3967406231879635;-0,030518509475997192
12:27:49.804;0;Mov;1;21420;11,36;0;0;0;-0,01794488357188635;0;0,0119632557145909;0,18311105685598317;-0,3357036042359691;0
12:27:49.807;0;Mov;1;21421;10,28;0;0;0;0,0023926511894857296;-0,014355907602589877;-0,0023926511894857296;0,3051850947599719;-0,4882961516159551;-0,061037018951994385
12:27:49.807;0;Mov;1;21422;10,28;0;0;0;-0,004785302378971459;-0,007177953801294938;0,0119632557145909;0,27466658528397475;-0,3967406231879635;-0,030518509475997192
12:27:49.807;0;Mov;1;21423;10,28;0;0;0;-0,025122837373181287;-0,010766930701942408;0,01674855762788686;0,18311105685598317;-0,3357036042359691;0
12:27:49.807;0;Mov;1;21424;10,28;0;0;0;-0,015552232615238368;-0,02273018548518231;-0,0023926511894857296;0,18311105685598317;-0,3051850947599719;-0,12207403790398877
12:27:49.807;0;Mov;1;21425;10,28;0;0;0;-0,003588976900647469;-0,014355907602589877;0,009570604757942918;0,27466658528397475;-0,36622211371196634;-0,061037018951994385
12:27:49.809;0;Wrist;1;2179;11,85;0;0;0;0,00598162785729545;-0,052638326634361556;-0,00598162785729545;0,3357036042359691;0,3357036042359691;-0,061037018951994385
12:27:49.809;0;Wrist;1;2180;11,85;0;0;0;-0,013159581658590389;-0,031104465230476736;-0,004785302378971459;0,4882961516159551;0,3357036042359691;0
12:27:49.809;0;Wrist;1;2181;11,85;0;0;0;-0,0239265114291818;-0,03349711525577372;0,015552232615238368;0,6103701895199438;0,27466658528397475;0,12207403790398877
12:27:49.809;0;Wrist;1;2182;11,85;0;0;0;-0,0239265114291818;-0,03349711525577372;0,014355907602589877;0,7629627368999298;0,21362956633198035;0,12207403790398877
12:27:49.809;0;Wrist;1;2183;11,85;0;0;0;-0,009570604757942918;0,003588976900647469;-0,00598162785729545;0,793481246375927;0,15259254737998595;0,24414807580797754
12:27:49.811;0;Wrist;1;2184;10,57;0;0;0;-0,007177953801294938;-0,009570604757942918;-0,007177953801294938;0,7019257179479355;0,061037018951994385;0,15259254737998595
12:27:49.811;0;Wrist;1;2185;10,57;0;0;0;-0,007177953801294938;-0,02273018548518231;-0,004785302378971459;0,793481246375927;0,09155552842799158;0,18311105685598317
12:27:49.811;0;Wrist;1;2186;10,57;0;0;0;0,021533861403884816;0,015552232615238368;-0,021533861403884816;0,5798516800439466;-0,15259254737998595;0,15259254737998595
12:27:49.811;0;Wrist;1;2187;10,57;0;0;0;-0,0239265114291818;-0,02990813928647725;0,0119632557145909;0,5798516800439466;-0,09155552842799158;0,15259254737998595
12:27:49.811;0;Wrist;1;2188;10,57;0;0;0;0;0,0011963255947428648;-0,0023926511894857296;0,4882961516159551;-0,12207403790398877;0,27466658528397475
12:27:49.831;0;Mov;1;21426;9,78;0;0;0;-0,013159581658590389;-0,0011963255947428648;0,03230079117447623;0,24414807580797754;-0,36622211371196634;0,061037018951994385
12:27:49.831;0;Mov;1;21427;9,78;0;0;0;-0,0023926511894857296;0,0011963255947428648;0,00598162785729545;0,24414807580797754;-0,4272591326639607;-0,030518509475997192
12:27:49.831;0;Mov;1;21428;9,78;0;0;0;-0,00837427881394343;0,020337535459885328;0,00837427881394343;0,21362956633198035;-0,4882961516159551;-0,061037018951994385
12:27:49.831;0;Mov;1;21429;9,78;0;0;0;-0,01674855762788686;-0,00598162785729545;0,019141209515885837;0,18311105685598317;-0,4882961516159551;-0,27466658528397475
12:27:49.831;0;Mov;1;21430;9,78;0;0;0;-0,021533861403884816;-0,020337535459885328;0,0011963255947428648;0,18311105685598317;-0,6714072084719382;-0,3051850947599719
12:27:49.868;0;Wrist;1;2189;10,66;0;0;0;0,01794488357188635;-0,038282419031771674;-0,0023926511894857296;0,5493331705679495;-0,24414807580797754;0,030518509475997192
12:27:49.868;0;Wrist;1;2190;10,66;0;0;0;-0,00598162785729545;0,003588976900647469;-0,026319163317180778;0,45777764213995786;-0,030518509475997192;-0,030518509475997192
12:27:49.868;0;Wrist;1;2191;10,66;0;0;0;0,038282419031771674;-0,01794488357188635;-0,03947874311306917;0,3357036042359691;-0,061037018951994385;0
12:27:49.868;0;Wrist;1;2192;10,66;0;0;0;0,031104465230476736;-0,02273018548518231;-0,03708609495047418;0,3051850947599719;-0,09155552842799158;-0,030518509475997192
12:27:49.868;0;Wrist;1;2193;10,66;0;0;0;0,021533861403884816;-0,01794488357188635;-0,0478530228583636;0,21362956633198035;0;-0,09155552842799158
12:27:49.870;0;Wrist;1;2194;9,72;0;0;0;0,025122837373181287;-0,04187139500106815;-0,015552232615238368;0,09155552842799158;-0,030518509475997192;-0,061037018951994385
12:27:49.870;0;Wrist;1;2195;9,72;0;0;0;-0,0011963255947428648;0,015552232615238368;-0,00598162785729545;0,27466658528397475;0,061037018951994385;-0,061037018951994385
12:27:49.870;0;Wrist;1;2196;9,72;0;0;0;0,00837427881394343;-0,0358897671437727;-0,021533861403884816;0,18311105685598317;0,18311105685598317;-0,09155552842799158
12:27:49.870;0;Wrist;1;2197;9,72;0;0;0;-0,013159581658590389;-0,01674855762788686;0,009570604757942918;0,09155552842799158;0,12207403790398877;0
12:27:49.870;0;Wrist;1;2198;9,72;0;0;0;0,019141209515885837;0,0239265114291818;-0,0119632557145909;0,18311105685598317;-0,030518509475997192;0,09155552842799158
12:27:49.897;0;Mov;1;21431;10,06;0;0;0;-0,010766930701942408;-0,013159581658590389;0,013159581658590389;0,3051850947599719;-0,793481246375927;-0,21362956633198035
12:27:49.897;0;Mov;1;21432;10,06;0;0;0;-0,004785302378971459;-0,007177953801294938;0,010766930701942408;0,27466658528397475;-0,6103701895199438;-0,18311105685598317
12:27:49.897;0;Mov;1;21433;10,06;0;0;0;-0,0011963255947428648;0,0023926511894857296;0;0,27466658528397475;-0,640888698995941;-0,061037018951994385
12:27:49.897;0;Mov;1;21434;10,06;0;0;0;0,00837427881394343;-0,01794488357188635;0,015552232615238368;0,24414807580797754;-0,640888698995941;-0,09155552842799158
12:27:49.897;0;Mov;1;21435;10,06;0;0;0;0,009570604757942918;-0,0023926511894857296;0,00837427881394343;0,18311105685598317;-0,5493331705679495;-0,09155552842799158
12:27:49.920;0;Mov;1;21436;9,65;0;0;0;0,014355907602589877;0,01794488357188635;-0,02273018548518231;0,12207403790398877;-0,5188146610919523;-0,12207403790398877
12:27:49.920;0;Mov;1;21437;9,65;0;0;0;0,013159581658590389;-0,009570604757942918;0,00598162785729545;0,21362956633198035;-0,3967406231879635;-0,09155552842799158
12:27:49.920;0;Mov;1;21438;9,65;0;0;0;0,020337535459885328;-0,0239265114291818;-0,027515489261180266;0,27466658528397475;-0,45777764213995786;0
12:27:49.920;0;Mov;1;21439;9,65;0;0;0;0,06699423051154745;-0,02990813928647725;-0,031104465230476736;0,3051850947599719;-0,3357036042359691;0,061037018951994385
12:27:49.920;0;Mov;1;21440;9,65;0;0;0;0,04546037097036462;0,003588976900647469;-0,01674855762788686;0,5798516800439466;0,18311105685598317;0,21362956633198035
12:27:49.933;0;Wrist;1;2199;9,96;0;0;0;0,03947874311306917;-0,040675070919770656;-0,03708609495047418;0,09155552842799158;0,030518509475997192;-0,09155552842799158
12:27:49.933;0;Wrist;1;2200;9,96;0;0;0;-0,0011963255947428648;-0,020337535459885328;-0,02273018548518231;0;0,21362956633198035;-0,030518509475997192
12:27:49.933;0;Wrist;1;2201;9,96;0;0;0;0,01794488357188635;-0,010766930701942408;-0,02273018548518231;0,030518509475997192;0,15259254737998595;-0,09155552842799158
12:27:49.933;0;Wrist;1;2202;9,96;0;0;0;0,06220893046095347;-0,03708609495047418;-0,0346934430624752;-0,030518509475997192;0,27466658528397475;-0,24414807580797754
12:27:49.933;0;Wrist;1;2203;9,96;0;0;0;-0,019141209515885837;0,01674855762788686;-0,027515489261180266;0,12207403790398877;0,36622211371196634;-0,21362956633198035
12:27:50.010;0;Mov;1;21441;10,25;0;0;0;0,0358897671437727;-0,003588976900647469;-0,03230079117447623;0,5188146610919523;0,4272591326639607;0,12207403790398877
12:27:50.010;0;Mov;1;21442;10,25;0;0;0;0,10168767357402264;-0,007177953801294938;-0,07297585836884289;0,4272591326639607;0,7324442274239327;0,18311105685598317
12:27:50.010;0;Mov;1;21443;10,25;0;0;0;0,013159581658590389;0,014355907602589877;-0,01674855762788686;0,5188146610919523;1,3122959074678793;0,45777764213995786
12:27:50.010;0;Mov;1;21444;10,25;0;0;0;0,0119632557145909;0,009570604757942918;-0,02273018548518231;0,4272591326639607;1,3428144169438765;0,4272591326639607
12:27:50.011;0;Mov;1;21445;10,25;0;0;0;0,0239265114291818;-0,015552232615238368;-0,0011963255947428648;0,21362956633198035;1,4343699453718681;0,4272591326639607
12:27:50.019;0;Wrist;1;2204;10,52;0;0;0;0,02990813928647725;-0,0466566987770661;-0,031104465230476736;0,061037018951994385;0,3357036042359691;-0,24414807580797754
12:27:50.019;0;Wrist;1;2205;10,52;0;0;0;0,04187139500106815;-0,020337535459885328;-0,0346934430624752;0,09155552842799158;0,3051850947599719;-0,24414807580797754
12:27:50.019;0;Wrist;1;2206;10,52;0;0;0;0,03230079117447623;-0,015552232615238368;-0,031104465230476736;0,18311105685598317;0,36622211371196634;-0,3051850947599719
12:27:50.019;0;Wrist;1;2207;10,52;0;0;0;0,020337535459885328;-0,04904935066506508;-0,00598162785729545;0,27466658528397475;0,640888698995941;-0,3967406231879635
12:27:50.019;0;Wrist;1;2208;10,52;0;0;0;-0,009570604757942918;0,021533861403884816;-0,003588976900647469;0,3051850947599719;0,6103701895199438;-0,3051850947599719
12:27:50.020;0;Wrist;1;2209;9,78;0;0;0;-0,013159581658590389;-0,020337535459885328;0,00837427881394343;0,5188146610919523;0,5493331705679495;-0,21362956633198035
12:27:50.020;0;Wrist;1;2210;9,78;0;0;0;-0,020337535459885328;0,0023926511894857296;0,00837427881394343;0,5188146610919523;0,640888698995941;-0,18311105685598317
12:27:50.020;0;Wrist;1;2211;9,78;0;0;0;-0,015552232615238368;-0,02273018548518231;0,026319163317180778;0,5798516800439466;0,4882961516159551;-0,18311105685598317
12:27:50.020;0;Wrist;1;2212;9,78;0;0;0;0,0023926511894857296;0,02273018548518231;-0,0119632557145909;0,3051850947599719;0,36622211371196634;-0,061037018951994385
12:27:50.020;0;Wrist;1;2213;9,78;0;0;0;0,01674855762788686;0;-0,01794488357188635;0,18311105685598317;0,36622211371196634;-0,061037018951994385
12:27:50.041;0;Mov;1;21446;9,97;0;0;0;-0,004785302378971459;0,025122837373181287;0,0358897671437727;0,27466658528397475;1,4954069643238623;0,4882961516159551
12:27:50.041;0;Mov;1;21447;9,97;0;0;0;-0,0239265114291818;-0,015552232615238368;0,0023926511894857296;0,36622211371196634;1,4343699453718681;0,4272591326639607
12:27:50.041;0;Mov;1;21448;9,97;0;0;0;-0,04306772280776963;0,0011963255947428648;0,0239265114291818;0,27466658528397475;1,2207403790398876;0,3357036042359691
12:27:50.041;0;Mov;1;21449;9,97;0;0;0;-0,0346934430624752;0,0119632557145909;0,04426404688906713;0,4272591326639607;0,793481246375927;0,3357036042359691
12:27:50.041;0;Mov;1;21450;9,97;0;0;0;-0,04306772280776963;0,028711815205179753;0,03708609495047418;0,3051850947599719;0,7324442274239327;0,18311105685598317
12:27:50.071;0;Mov;1;21451;9,72;0;0;0;-0,03349711525577372;0,028711815205179753;0,025122837373181287;0,09155552842799158;0,5188146610919523;0,061037018951994385
12:27:50.071;0;Mov;1;21452;9,72;0;0;0;-0,026319163317180778;0,0239265114291818;0,01674855762788686;0,18311105685598317;0,27466658528397475;-0,061037018951994385
12:27:50.071;0;Mov;1;21453;9,72;0;0;0;-0,03349711525577372;0,013159581658590389;0,04904935066506508;0,09155552842799158;0,18311105685598317;-0,061037018951994385
12:27:50.071;0;Mov;1;21454;9,72;0;0;0;-0,05503097852236053;0,01794488357188635;0,05742363041035951;-0,3357036042359691;0,09155552842799158;-0,12207403790398877
12:27:50.071;0;Mov;1;21455;9,72;0;0;0;-0,00598162785729545;-0,04904935066506508;0,0346934430624752;-0,5493331705679495;0,030518509475997192;-0,061037018951994385
12:27:50.080;0;Wrist;1;2214;9,94;0;0;0;-0,03708609495047418;-0,0346934430624752;0,027515489261180266;0,030518509475997192;0,27466658528397475;-0,18311105685598317
12:27:50.081;0;Wrist;1;2215;9,94;0;0;0;-0,0358897671437727;-0,010766930701942408;0,00598162785729545;0,21362956633198035;0,061037018951994385;0
12:27:50.081;0;Wrist;1;2216;9,94;0;0;0;0,004785302378971459;-0,01794488357188635;-0,0023926511894857296;0,24414807580797754;-0,030518509475997192;0,15259254737998595
12:27:50.081;0;Wrist;1;2217;9,94;0;0;0;-0,0023926511894857296;0,0011963255947428648;0;0,15259254737998595;0,09155552842799158;0,030518509475997192
12:27:50.081;0;Wrist;1;2218;9,94;0;0;0;0,0023926511894857296;-0,003588976900647469;-0,019141209515885837;0,12207403790398877;-0,030518509475997192;-0,030518509475997192
12:27:50.132;0;Mov;1;21456;9,88;0;0;0;-0,058619954491657;-0,00598162785729545;0,027515489261180266;-0,5493331705679495;-0,030518509475997192;0,030518509475997192
12:27:50.132;0;Mov;1;21457;9,88;0;0;0;-0,11365092928861355;0,08015381775824382;0,1387737722499008;-0,5798516800439466;-0,5493331705679495;0
12:27:50.132;0;Mov;1;21458;9,88;0;0;0;-0,09092074194072924;-0,01674855762788686;0,12441786092190694;-0,9460737937559129;-1,1597033600878932;-0,030518509475997192
12:27:50.132;0;Mov;1;21459;9,88;0;0;0;-0,09211707347283471;0,03947874311306917;0,0478530228583636;-1,0681478316599018;-1,8311105685598315;0
12:27:50.132;0;Mov;1;21460;9,88;0;0;0;-0,007177953801294938;-0,07776116214484084;-0,0358897671437727;-1,098666341135899;-2,2583697012237924;-0,21362956633198035
12:27:50.139;0;Wrist;1;2219;10,05;0;0;0;0,007177953801294938;-0,004785302378971459;-0,009570604757942918;0;-0,15259254737998595;0
12:27:50.139;0;Wrist;1;2220;10,05;0;0;0;-0,009570604757942918;0,0011963255947428648;0;-0,24414807580797754;-0,27466658528397475;-0,15259254737998595
12:27:50.139;0;Wrist;1;2221;10,05;0;0;0;-0,01794488357188635;-0,0239265114291818;0,040675070919770656;-0,061037018951994385;-0,6714072084719382;-0,3051850947599719
12:27:50.140;0;Wrist;1;2222;10,05;0;0;0;0,0023926511894857296;-0,027515489261180266;0,03349711525577372;-0,030518509475997192;-0,8239997558519242;-0,3357036042359691
12:27:50.140;0;Wrist;1;2223;10,05;0;0;0;-0,003588976900647469;-0,01674855762788686;0,038282419031771674;0,18311105685598317;-0,9765923032319102;-0,15259254737998595
12:27:50.162;0;Mov;1;21461;9,65;0;0;0;-0,01674855762788686;-0,05144199882766007;0,028711815205179753;-0,8239997558519242;-2,380443739127781;-0,09155552842799158
12:27:50.162;0;Mov;1;21462;9,65;0;0;0;-0,09092074194072924;0,03947874311306917;0,10886562551261558;-0,793481246375927;-2,4414807580797753;-0,061037018951994385
12:27:50.162;0;Mov;1;21463;9,65;0;0;0;-0,12322153684060945;0,04546037097036462;0,10886562551261558;-0,640888698995941;-2,8992584002197335;-0,3967406231879635
12:27:50.162;0;Mov;1;21464;9,65;0;0;0;-0,0478530228583636;-0,058619954491657;0,01794488357188635;0,21362956633198035;-3,69273964659566;-0,8850367748039186
12:27:50.162;0;Mov;1;21465;9,65;0;0;0;0,007177953801294938;-0,058619954491657;-0,05144199882766007;-0,6103701895199438;-4,089480269783624;-0,793481246375927
12:27:50.169;0;Wrist;1;2224;9,81;0;0;0;-0,03708609495047418;0,00837427881394343;0,04904935066506508;0,24414807580797754;-0,9460737937559129;-0,09155552842799158
12:27:50.169;0;Wrist;1;2225;9,81;0;0;0;-0,06101260637965598;0,0933133975541322;0,05742363041035951;0,21362956633198035;-0,8850367748039186;-0,061037018951994385
12:27:50.169;0;Wrist;1;2226;9,81;0;0;0;-0,10168767357402264;0,0358897671437727;0,11365092928861355;0,12207403790398877;-1,2207403790398876;-0,27466658528397475
12:27:50.169;0;Wrist;1;2227;9,81;0;0;0;-0,14595171673768578;0,03349711525577372;0,1064729773500206;0;-1,5259254737998595;-0,3967406231879635
12:27:50.169;0;Wrist;1;2228;9,81;0;0;0;-0,1064729773500206;0,031104465230476736;0,0705832102062479;-0,24414807580797754;-2,075258644367809;-0,030518509475997192
12:27:50.229;0;Wrist;1;2229;9,93;0;0;0;-0,00837427881394343;0,0478530228583636;0,020337535459885328;-0,5188146610919523;-2,685628833887753;0,12207403790398877
12:27:50.229;0;Wrist;1;2230;9,93;0;0;0;0,06220893046095347;0,025122837373181287;-0,04187139500106815;-1,0681478316599018;-2,71614734336375;0,030518509475997192
12:27:50.229;0;Wrist;1;2231;9,93;0;0;0;0,056227302603658026;-0,015552232615238368;-0,07536851398224585;-1,281777397991882;-2,533036286507767;-0,18311105685598317
12:27:50.229;0;Wrist;1;2232;9,93;0;0;0;0,08254646592083881;-0,02273018548518231;-0,10527665326872311;-1,6479995117038484;-2,685628833887753;-0,18311105685598317
12:27:50.229;0;Wrist;1;2233;9,93;0;0;0;0,1543260076591922;-0,056227302603658026;-0,12202521275931195;-1,7700735496078372;-2,410962248603778;-0,030518509475997192
12:27:50.252;0;Mov;1;21466;10,09;0;0;0;0,0119632557145909;-0,03230079117447623;-0,05144199882766007;-0,640888698995941;-4,211554307687613;-0,4882961516159551
12:27:50.252;0;Mov;1;21467;10,09;0;0;0;-0,0346934430624752;-0,02990813928647725;-0,0023926511894857296;0;-4,1810357982116155;-0,4882961516159551
12:27:50.252;0;Mov;1;21468;10,09;0;0;0;0,01674855762788686;-0,0693868861249504;-0,06220893046095347;0,24414807580797754;-4,7303689687795645;-0,3051850947599719
12:27:50.252;0;Mov;1;21469;10,09;0;0;0;0,056227302603658026;0,038282419031771674;-0,04187139500106815;0,6714072084719382;-4,8829615161595505;-0,4272591326639607
12:27:50.252;0;Mov;1;21470;10,09;0;0;0;0,020337535459885328;-0,07776116214484084;-0,04187139500106815;0,7324442274239327;-4,24207281716361;-0,4882961516159551
12:27:50.280;0;Mov;1;21471;9,87;0;0;0;0,021533861403884816;0;-0,02990813928647725;0,793481246375927;-4,150517288735618;-0,15259254737998595
12:27:50.280;0;Mov;1;21472;9,87;0;0;0;0,05144199882766007;0,058619954491657;-0,020337535459885328;0,8545182653279214;-3,8758507034516434;-0,27466658528397475
12:27:50.281;0;Mov;1;21473;9,87;0;0;0;0,02990813928647725;-0,02273018548518231;-0,0478530228583636;0,6103701895199438;-3,448591570787683;-0,36622211371196634
12:27:50.281;0;Mov;1;21474;9,87;0;0;0;0,07776116214484084;0;-0,0705832102062479;0,8239997558519242;-2,9297769096957307;-0,3051850947599719
12:27:50.281;0;Mov;1;21475;9,87;0;0;0;0,10886562551261558;-0,01794488357188635;-0,08015381775824382;1,098666341135899;-2,4414807580797753;-0,27466658528397475
12:27:50.348;0;Wrist;1;2234;10,67;0;0;0;0,13039949623001038;-0,04187139500106815;-0,08135014183954131;-1,73955504013184;-1,6785180211798456;-0,18311105685598317
12:27:50.348;0;Wrist;1;2235;10,67;0;0;0;0,009570604757942918;-0,027515489261180266;-0,03947874311306917;-1,6785180211798456;-1,0071108127079074;-0,5798516800439466
12:27:50.349;0;Wrist;1;2236;10,67;0;0;0;0,00837427881394343;-0,08135014183954131;-0,0598162785729545;-2,1362956633198036;-1,8921475875118259;-0,4272591326639607
12:27:50.349;0;Wrist;1;2237;10,67;0;0;0;0,16030763551648763;-0,17825251908837397;-0,16150395214697713;-1,8311105685598315;-1,8616290780358287;-0,15259254737998595
12:27:50.349;0;Wrist;1;2238;10,67;0;0;0;0,23208716980403302;-0,027515489261180266;-0,22132023071993165;-1,3428144169438765;-0,7324442274239327;-0,21362956633198035
12:27:50.352;0;Wrist;1;2239;10,17;0;0;0;0,3086520153183844;-0,1531296761270867;-0,37564622347750787;-1,403851435895871;0,12207403790398877;-0,7019257179479355
12:27:50.352;0;Wrist;1;2240;10,17;0;0;0;0,2596026609279153;-0,09092074194072924;-0,239265114291818;-1,1902218695638904;1,5564439832758568;-1,098666341135899
12:27:50.352;0;Wrist;1;2241;10,17;0;0;0;-0,019141209515885837;0,0598162785729545;0,009570604757942918;-0,793481246375927;2,9297769096957307;-1,4954069643238623
12:27:50.352;0;Wrist;1;2242;10,17;0;0;0;-0,003588976900647469;-0,04426404688906713;-0,004785302378971459;-1,1291848506118962;2,9602954191717274;-1,6174810022278512
12:27:50.352;0;Wrist;1;2243;10,17;0;0;0;0,058619954491657;-0,06460158234895245;-0,056227302603658026;-0,8239997558519242;2,8992584002197335;-1,3733329264198737
12:27:50.378;0;Wrist;1;2244;9,94;0;0;0;0,052638326634361556;-0,05383465071565905;-0,028711815205179753;-0,24414807580797754;3,0823694570757163;-1,1597033600878932
12:27:50.378;0;Wrist;1;2245;9,94;0;0;0;-0,003588976900647469;-0,025122837373181287;-0,004785302378971459;0,15259254737998595;3,5401470992156745;-1,0071108127079074
12:27:50.378;0;Wrist;1;2246;9,94;0;0;0;-0,05742363041035951;-0,028711815205179753;0,0239265114291818;0,24414807580797754;3,5096285897396773;-0,8850367748039186
12:27:50.379;0;Wrist;1;2247;9,94;0;0;0;0,013159581658590389;-0,05024567474636257;-0,026319163317180778;0,3357036042359691;3,1434064760277107;-0,7019257179479355
12:27:50.379;0;Wrist;1;2248;9,94;0;0;0;0,03708609495047418;0,004785302378971459;0,0023926511894857296;0,5493331705679495;3,173924985503708;-0,45777764213995786
12:27:50.406;0;Mov;1;21476;10,6;0;0;0;0,1076693014313181;-0,004785302378971459;-0,06699423051154745;1,4648884548478653;-1,73955504013184;-0,030518509475997192
12:27:50.406;0;Mov;1;21477;10,6;0;0;0;0,1292031646979049;0,020337535459885328;-0,08015381775824382;1,7700735496078372;-1,2512588885158848;-0,030518509475997192
12:27:50.406;0;Mov;1;21478;10,6;0;0;0;0,08972441785943175;-0,01794488357188635;-0,058619954491657;1,922666096987823;-0,5188146610919523;0
12:27:50.406;0;Mov;1;21479;10,6;0;0;0;0,01794488357188635;0,010766930701942408;0,00837427881394343;2,044740134891812;0,030518509475997192;0,24414807580797754
12:27:50.406;0;Mov;1;21480;10,6;0;0;0;0,0358897671437727;0,0358897671437727;-0,027515489261180266;1,8921475875118259;0,21362956633198035;0,18311105685598317
12:27:50.408;0;Mov;1;21481;10,14;0;0;0;0,13638112408730582;0,019141209515885837;-0,0693868861249504;2,044740134891812;0,5493331705679495;0,061037018951994385
12:27:50.409;0;Mov;1;21482;10,14;0;0;0;0,09092074194072924;0;-0,056227302603658026;2,044740134891812;1,281777397991882;0,061037018951994385
12:27:50.409;0;Mov;1;21483;10,14;0;0;0;0,028711815205179753;-0,00837427881394343;-0,009570604757942918;1,922666096987823;1,9531846064638203;0,12207403790398877
12:27:50.409;0;Mov;1;21484;10,14;0;0;0;0,0239265114291818;-0,003588976900647469;-0,013159581658590389;2,1362956633198036;2,380443739127781;0,15259254737998595
12:27:50.409;0;Mov;1;21485;10,14;0;0;0;0,020337535459885328;0,02990813928647725;0,028711815205179753;1,9531846064638203;2,685628833887753;0,030518509475997192
12:27:50.438;0;Wrist;1;2249;10,03;0;0;0;-0,09092074194072924;0,01794488357188635;0,08135014183954131;0,4272591326639607;3,1128879665517135;-0,640888698995941
12:27:50.438;0;Wrist;1;2250;10,03;0;0;0;-0,09690236979802469;-0,056227302603658026;0,06699423051154745;0,36622211371196634;2,838221381267739;-0,45777764213995786
12:27:50.438;0;Wrist;1;2251;10,03;0;0;0;-0,05024567474636257;-0,026319163317180778;0,03230079117447623;0,8850367748039186;2,2278511917477952;0
12:27:50.438;0;Wrist;1;2252;10,03;0;0;0;-0,05503097852236053;0,01794488357188635;0,0478530228583636;1,1291848506118962;1,9531846064638203;0,24414807580797754
12:27:50.438;0;Wrist;1;2253;10,03;0;0;0;-0,052638326634361556;-0,013159581658590389;0,014355907602589877;1,0376293221839046;1,4648884548478653;0,27466658528397475
12:27:50.463;0;Mov;1;21486;10,17;0;0;0;-0,11484726082071901;0,04187139500106815;0,12322153684060945;1,5259254737998595;2,7771843623157446;-0,09155552842799158
12:27:50.463;0;Mov;1;21487;10,17;0;0;0;-0,09092074194072924;0,013159581658590389;0,06819056204365291;1,2512588885158848;2,197332682271798;-0,27466658528397475
12:27:50.463;0;Mov;1;21488;10,17;0;0;0;-0,02990813928647725;0,009570604757942918;0,04546037097036462;1,098666341135899;1,7090365306558428;-0,3967406231879635
12:27:50.463;0;Mov;1;21489;10,17;0;0;0;-0,028711815205179753;0,014355907602589877;0,0346934430624752;0,8239997558519242;1,6479995117038484;-0,36622211371196634
12:27:50.463;0;Mov;1;21490;10,17;0;0;0;0,04306772280776963;0,0011963255947428648;-0,0837427900021363;0,793481246375927;1,403851435895871;-0,24414807580797754
12:27:50.464;0;Mov;1;21491;9,76;0;0;0;0,05503097852236053;-0,014355907602589877;-0,003588976900647469;1,0071108127079074;1,5259254737998595;-0,3051850947599719
12:27:50.464;0;Mov;1;21492;9,76;0;0;0;-0,06340525826765496;0,00837427881394343;0,03349711525577372;0,8545182653279214;2,075258644367809;-0,3051850947599719
12:27:50.464;0;Mov;1;21493;9,76;0;0;0;-0,0358897671437727;0,02990813928647725;0,007177953801294938;0,9765923032319102;1,7700735496078372;-0,4272591326639607
12:27:50.464;0;Mov;1;21494;9,76;0;0;0;0,052638326634361556;-0,04187139500106815;-0,0358897671437727;1,0376293221839046;1,403851435895871;-0,5798516800439466
12:27:50.464;0;Mov;1;21495;9,76;0;0;0;-0,015552232615238368;-0,013159581658590389;0,003588976900647469;1,0681478316599018;1,8311105685598315;-0,36622211371196634
12:27:50.469;0;Wrist;1;2254;9,87;0;0;0;-0,025122837373181287;-0,038282419031771674;0;0,9765923032319102;1,0681478316599018;0,45777764213995786
12:27:50.469;0;Wrist;1;2255;9,87;0;0;0;-0,0119632557145909;0,01794488357188635;0,027515489261180266;0,8239997558519242;0,9765923032319102;0,45777764213995786
12:27:50.469;0;Wrist;1;2256;9,87;0;0;0;-0,02273018548518231;0,025122837373181287;0,01674855762788686;0,640888698995941;0,7324442274239327;0,3967406231879635
12:27:50.469;0;Wrist;1;2257;9,87;0;0;0;-0,015552232615238368;-0,02273018548518231;0;0,5188146610919523;0,45777764213995786;0,27466658528397475
12:27:50.470;0;Wrist;1;2258;9,87;0;0;0;0,00837427881394343;-0,010766930701942408;0,0119632557145909;0,5188146610919523;0,21362956633198035;0,3967406231879635
12:27:50.522;0;Mov;1;21496;9,85;0;0;0;-0,04306772280776963;0,06101260637965598;-0,08254646592083881;1,1291848506118962;1,8921475875118259;-0,3051850947599719
12:27:50.524;0;Mov;1;21497;9,85;0;0;0;0,05742363041035951;0,0346934430624752;-0,04426404688906713;1,586962492751854;1,5564439832758568;-0,4882961516159551
12:27:50.524;0;Mov;1;21498;9,85;0;0;0;-0,04187139500106815;-0,020337535459885328;0,05503097852236053;1,1902218695638904;1,586962492751854;-0,6103701895199438
12:27:50.524;0;Mov;1;21499;9,85;0;0;0;-0,05503097852236053;0,058619954491657;0,07417218990094836;1,0071108127079074;1,6174810022278512;-0,5798516800439466
12:27:50.524;0;Mov;1;21500;9,85;0;0;0;-0,06699423051154745;0,04904935066506508;0,0598162785729545;0,7629627368999298;1,3428144169438765;-0,7629627368999298
12:27:50.559;0;Wrist;1;2259;10,2;0;0;0;-0,01794488357188635;0,04426404688906713;0,021533861403884816;0,4882961516159551;0,09155552842799158;0,45777764213995786
12:27:50.559;0;Wrist;1;2260;10,2;0;0;0;-0,0023926511894857296;0,04426404688906713;0,004785302378971459;0,12207403790398877;0,12207403790398877;0,3051850947599719
12:27:50.559;0;Wrist;1;2261;10,2;0;0;0;0,0023926511894857296;-0,014355907602589877;0,04187139500106815;0;0,12207403790398877;0,21362956633198035
12:27:50.559;0;Wrist;1;2262;10,2;0;0;0;-0,025122837373181287;0,0239265114291818;0,05383465071565905;0,24414807580797754;0,36622211371196634;0,18311105685598317
12:27:50.559;0;Wrist;1;2263;10,2;0;0;0;-0,0119632557145909;0,0011963255947428648;0,031104465230476736;0,12207403790398877;0,24414807580797754;0,15259254737998595
12:27:50.619;0;Wrist;1;2264;10,27;0;0;0;-0,0119632557145909;0,015552232615238368;0,038282419031771674;0,061037018951994385;0,18311105685598317;0,09155552842799158
12:27:50.619;0;Wrist;1;2265;10,27;0;0;0;0,010766930701942408;0,027515489261180266;0,00837427881394343;-0,030518509475997192;-0,030518509475997192;-0,09155552842799158
12:27:50.619;0;Wrist;1;2266;10,27;0;0;0;0,05503097852236053;0,031104465230476736;-0,021533861403884816;-0,4882961516159551;-0,5188146610919523;-0,3051850947599719
12:27:50.619;0;Wrist;1;2267;10,27;0;0;0;-0,025122837373181287;0,0478530228583636;0,0598162785729545;-1,4343699453718681;-0,8239997558519242;-0,6714072084719382
12:27:50.620;0;Wrist;1;2268;10,27;0;0;0;-0,14714804826979125;-0,01794488357188635;0,14236275194460127;-2,380443739127781;-1,8921475875118259;-0,7629627368999298
12:27:50.648;0;Wrist;1;2269;10,1;0;0;0;-0,12202521275931195;0,015552232615238368;0,14475540010719626;-2,5025177770317697;-3,5401470992156745;-0,3357036042359691
12:27:50.648;0;Wrist;1;2270;10,1;0;0;0;-0,07417218990094836;0,07776116214484084;0,19739371929074984;-2,3499252296517836;-4,150517288735618;-0,15259254737998595
12:27:50.648;0;Wrist;1;2271;10,1;0;0;0;-0,23567614949873347;0,0023926511894857296;0,28352917235709707;-1,7700735496078372;-4,760887478255562;-0,15259254737998595
12:27:50.648;0;Wrist;1;2272;10,1;0;0;0;-0,2631916257209998;0,02990813928647725;0,290707131746498;-1,8616290780358287;-7,080294198431349;0,6714072084719382
12:27:50.648;0;Wrist;1;2273;10,1;0;0;0;-0,16030763551648763;0,0023926511894857296;0,28472550388920254;-1,9531846064638203;-8,57570116275521;1,5564439832758568
12:27:50.731;0;Mov;1;21501;11,06;0;0;0;-0,07536851398224585;0,028711815205179753;0,09809870133013016;0,4882961516159551;1,0376293221839046;-0,8545182653279214
12:27:50.731;0;Mov;1;21502;11,06;0;0;0;-0,10288399765532014;0,0478530228583636;0,0933133975541322;-0,030518509475997192;0,8850367748039186;-0,8239997558519242
12:27:50.731;0;Mov;1;21503;11,06;0;0;0;-0,1674855800042726;-0,003588976900647469;0,12202521275931195;-0,5798516800439466;0,18311105685598317;-0,7324442274239327
12:27:50.731;0;Mov;1;21504;11,06;0;0;0;-0,22371287888252664;0,02990813928647725;0,19978636745334483;-1,098666341135899;-0,5493331705679495;-0,7629627368999298
12:27:50.731;0;Mov;1;21505;11,06;0;0;0;-0,2249092104146321;0,014355907602589877;0,16987822816686757;-1,6479995117038484;-1,5564439832758568;-0,7324442274239327
12:27:50.732;0;Mov;1;21506;10,66;0;0;0;-0,16389660030957212;0,015552232615238368;0,14475540010719626;-2,6551103244117558;-2,533036286507767;-0,793481246375927
12:27:50.732;0;Mov;1;21507;10,66;0;0;0;-0,1985900508228553;-0,04904935066506508;0,15671865582178715;-3,021332438123722;-3,7842951750236518;-0,9155552842799157
12:27:50.733;0;Mov;1;21508;10,66;0;0;0;-0,13518479255520036;-0,056227302603658026;0,0717795342875454;-2,71614734336375;-5,798516800439467;-1,098666341135899
12:27:50.733;0;Mov;1;21509;10,66;0;0;0;0,028711815205179753;-0,08733176969683676;-0,0957060457167272;-1,6174810022278512;-7,38547929319132;-1,0681478316599018
12:27:50.733;0;Mov;1;21510;10,66;0;0;0;0,013159581658590389;-0,007177953801294938;-0,015552232615238368;-0,6103701895199438;-8,209479049043244;-0,9765923032319102
12:27:50.734;0;Mov;1;21511;10,3;0;0;0;-0,11484726082071901;0,015552232615238368;0,0933133975541322;-0,6714072084719382;-8,48414563432722;-0,8545182653279214
12:27:50.735;0;Mov;1;21512;10,3;0;0;0;-0,0717795342875454;0,04187139500106815;0,031104465230476736;-0,9460737937559129;-9,24710837122715;-1,1902218695638904
12:27:50.735;0;Mov;1;21513;10,3;0;0;0;-0,04306772280776963;0,021533861403884816;0,025122837373181287;-0,7019257179479355;-10,071108127079073;-1,6785180211798456
12:27:50.735;0;Mov;1;21514;10,3;0;0;0;-0,14954069643238624;-0,020337535459885328;0,08613544561553926;-0,5798516800439466;-10,681478316599017;-1,8311105685598315
12:27:50.736;0;Mov;1;21515;10,3;0;0;0;-0,1292031646979049;-0,0358897671437727;0,07895748622613834;-0,18311105685598317;-12,17688528092288;-2,1362956633198036
12:27:50.737;0;Mov;1;21516;9,96;0;0;0;-0,13997008888039034;-0,01794488357188635;0,0957060457167272;-0,030518509475997192;-13,641773735770744;-2,380443739127781
12:27:50.737;0;Mov;1;21517;9,96;0;0;0;-0,15671865582178715;-0,10288399765532014;0,07297585836884289;0,21362956633198035;-14,526810510574663;-2,4414807580797753
12:27:50.737;0;Mov;1;21518;9,96;0;0;0;-0,040675070919770656;-0,05503097852236053;0,00837427881394343;0,9155552842799157;-15,32029175695059;-2,563554795983764
12:27:50.737;0;Mov;1;21519;9,96;0;0;0;0,058619954491657;-0,09211707347283471;-0,0466566987770661;1,3733329264198737;-15,32029175695059;-2,3194067201757864
12:27:50.737;0;Mov;1;21520;9,96;0;0;0;0,0358897671437727;-0,08135014183954131;-0,027515489261180266;1,8921475875118259;-14,618366039002655;-1,8311105685598315
12:27:50.768;0;Wrist;1;2274;10,62;0;0;0;-0,20457167868015075;0,07656483806354335;0,31582994490455335;-0,9765923032319102;-9,521774956511123;2,044740134891812
12:27:50.768;0;Wrist;1;2275;10,62;0;0;0;-0,20816065837485123;0,11365092928861355;0,26558428878521073;-0,6714072084719382;-11,261329996642964;2,075258644367809
12:27:50.768;0;Wrist;1;2276;10,62;0;0;0;-0,20217903051755579;0,1674855800042726;0,12322153684060945;0,09155552842799158;-12,909329508346813;2,1362956633198036
12:27:50.768;0;Wrist;1;2277;10,62;0;0;0;-0,12561418500320445;0,13757744071779535;0,040675070919770656;0;-15,015106662190618;2,5025177770317697
12:27:50.769;0;Wrist;1;2278;10,62;0;0;0;-0,10527665326872311;0,10288399765532014;0,13039949623001038;-0,5798516800439466;-17,09036530655843;2,685628833887753
12:27:50.770;0;Wrist;1;2279;10,25;0;0;0;-0,21653493439474167;0,05742363041035951;0,16030763551648763;0;-19,47080904568621;2,166814172795801
12:27:50.770;0;Wrist;1;2280;10,25;0;0;0;-0,236872466129223;0,04546037097036462;0,13757744071779535;0,09155552842799158;-22,980437635425886;1,8616290780358287
12:27:50.770;0;Wrist;1;2281;10,25;0;0;0;-0,07417218990094836;-0,12202521275931195;0,08135014183954131;-0,45777764213995786;-26,947843867305522;1,6479995117038484
12:27:50.770;0;Wrist;1;2282;10,25;0;0;0;0,19500107112815485;-0,16987822816686757;-0,22132023071993165;0,3357036042359691;-28,2601397747734;1,0376293221839046
12:27:50.770;0;Wrist;1;2283;10,25;0;0;0;-0,08015381775824382;-0,08972441785943175;0,13279214439260537;2,3194067201757864;-27,80236213263344;0,8850367748039186
12:27:50.798;0;Wrist;1;2284;10,09;0;0;0;-0,28113650929288614;-0,03230079117447623;0,16868191153637807;3,7232581560716573;-28,77895443586535;0,7019257179479355
12:27:50.798;0;Wrist;1;2285;10,09;0;0;0;-0,026319163317180778;-0,12681051653530992;-0,1435590685750908;4,089480269783624;-30,64058351390118;1,098666341135899
12:27:50.798;0;Wrist;1;2286;10,09;0;0;0;0,18543046357615894;-0,3170262764366588;-0,18423414694566942;4,913480025635548;-31,006805627613147;1,6174810022278512
12:27:50.798;0;Wrist;1;2287;10,09;0;0;0;0,04904935066506508;-0,20696432684274574;-0,07417218990094836;5,401776177251503;-28,870509964293344;2,3499252296517836
12:27:50.798;0;Wrist;1;2288;10,09;0;0;0;0,03230079117447623;-0,19739371929074984;-0,14475540010719626;5,920590838343455;-27,771843623157444;3,021332438123722
12:27:50.860;0;Wrist;1;2289;10,17;0;0;0;0,23328348643452254;-0,48331555471205784;-0,32779320061914424;6,317331461531419;-26,764732810449537;3,4180730613116856
12:27:50.860;0;Wrist;1;2290;10,17;-0,5359538440923796;0;0;0,19500107112815485;-0,5359538440923796;-0,2596026609279153;7,110812707907346;-24,109622486037782;4,486220892971588
12:27:50.860;0;Wrist;1;2291;10,17;0;0;0;-0,00598162785729545;-0,3828241828669088;0,021533861403884816;8,453627124851222;-21,17984557634205;5,706961272011475
12:27:50.860;0;Wrist;1;2292;10,17;0;0;0;-0,1961974026602603;-0,23328348643452254;0,12322153684060945;10,467848750267036;-20,020142216254158;7,049775688955352
12:27:50.860;0;Wrist;1;2293;10,17;0;0;0;0,08254646592083881;-0,3888058107242042;-0,2859218056180761;12,573625904110843;-19,959105197302165;8,423108615375225
12:27:50.888;0;Wrist;1;2294;10,02;-0,5383465071565905;0;-0,7369365877826777;0,4474257577650533;-0,5383465071565905;-0,7369365877826777;14,618366039002655;-18,402661214026306;9,7964415417951
12:27:50.888;0;Wrist;1;2295;10,02;0;0;-0,8051270976706748;0,43665883358256785;-0,33736382307275614;-0,8051270976706748;15,594958342234566;-14,984588152714622;11,047700430310984
12:27:50.888;0;Wrist;1;2296;10,02;-0,5491134611423079;0,9259560161519211;-1,7897030310602131;0,9259560161519211;-0,5491134611423079;-1,7897030310602131;14,435254982146672;-11,658070619830928;12,237922299874874
12:27:50.888;0;Wrist;1;2297;10,02;0;1,3973083151493881;-1,6533220112842189;1,3973083151493881;-0,21773125102523117;-1,6533220112842189;12,482070375682852;-3,47911008026368;12,970366527298808
12:27:50.889;0;Wrist;1;2298;10,02;0;0,6866909018601032;-1,3745781054490798;0,6866909018601032;0,22969452164143803;-1,3745781054490798;13,428144169438765;7,354960783715323;10,132145146031068
12:27:50.911;0;Mov;1;21521;10,79;0;0;0;-0,007177953801294938;-0,0837427900021363;0,028711815205179753;2,288888210699789;-14,526810510574663;-1,5564439832758568
12:27:50.912;0;Mov;1;21522;10,79;0;0;0;0,014355907602589877;-0,09809870133013016;0,014355907602589877;2,533036286507767;-14,34369945371868;-1,2207403790398876
12:27:50.912;0;Mov;1;21523;10,79;0;0;0;0,007177953801294938;-0,0837427900021363;0,0119632557145909;2,8992584002197335;-14,191106906338694;-0,9460737937559129
12:27:50.912;0;Mov;1;21524;10,79;0;0;0;0,00837427881394343;-0,06460158234895245;0,0239265114291818;3,3875545518356884;-14,221625415814692;-0,7019257179479355
12:27:50.912;0;Mov;1;21525;10,79;0;0;0;0,06220893046095347;-0,04426404688906713;-0,05024567474636257;4,24207281716361;-14,160588396862698;-0,4882961516159551
12:27:50.929;0;Wrist;1;2299;9,96;0;0,766844727069155;-1,3745781054490798;0,766844727069155;0,3935911070493942;-1,3745781054490798;7,232886745811334;12,054811243018891;8,728293710135198
12:27:50.930;0;Wrist;1;2300;9,96;0;0,9211706900234993;-0,8601581097216712;0,9211706900234993;0,239265114291818;-0,8601581097216712;1,0376293221839046;18,311105685598314;6,40888698995941
12:27:50.930;0;Wrist;1;2301;9,96;0,827857307370983;0,5395428684919279;-0,6316598898091067;0,5395428684919279;0,827857307370983;-0,6316598898091067;-1,3733329264198737;27,863399151585437;2,0142216254158147
12:27:50.930;0;Wrist;1;2302;9,96;1,2609271761604663;0;0;-0,02273018548518231;1,2609271761604663;-0,2679769220461898;-7,538071840571306;30,365916928617207;-2,3499252296517836
12:27:50.930;0;Wrist;1;2303;9,96;0;0;-0,9594531202314829;0,3313821952154607;0,13279214439260537;-0,9594531202314829;-12,878810998870815;29,48088015381329;-5,7374797814874725
12:27:50.944;0;Mov;1;21526;10,65;0;0;0;0,1543260076591922;-0,056227302603658026;-0,014355907602589877;5,066072573015534;-13,611255226294748;-0,12207403790398877
12:27:50.944;0;Mov;1;21527;10,65;0;0;0;0,0945097216354297;-0,04546037097036462;0,013159581658590389;5,188146610919523;-12,39051484725486;0,030518509475997192
12:27:50.944;0;Mov;1;21528;10,65;0;0;0;0,040675070919770656;-0,0693868861249504;0,0705832102062479;6,103701895199438;-11,688589129306925;0,4272591326639607
12:27:50.944;0;Mov;1;21529;10,65;0;0;0;-0,1292031646979049;-0,019141209515885837;0,07297585836884289;6,653035065767388;-11,780144657734915;0,7324442274239327
12:27:50.944;0;Mov;1;21530;10,65;0;0;0;0,1674855800042726;-0,11006195704472106;-0,03349711525577372;8,362071596423231;-12,329477828302865;0,5188146610919523
12:27:50.978;0;Wrist;1;2304;9,96;0;0;0;-0,13518479255520036;-0,2548173646027253;0,47494126379055146;-15,717032380138553;35,09628589739677;-7,477034821619312
12:27:50.978;0;Wrist;1;2305;9,96;0;0;0,7441145173688467;-0,19500107112815485;-0,1064729773500206;0,7441145173688467;-18,03643910031434;36,74428540910062;-7,141331217383343
12:27:50.978;0;Wrist;1;2306;9,96;0;0;0;0,2703695851104007;-0,01674855762788686;0,1531296761270867;-15,747550889614551;37,232581560716575;-7,446516312143315
12:27:50.978;0;Wrist;1;2307;9,96;0;0;0;0,2871181371501816;-0,11484726082071901;0,29190343347537157;-13,946958830530717;37,324137089144564;-8,392590105899227
12:27:50.978;0;Wrist;1;2308;9,96;0;0;0;-0,24046144582392345;-0,12681051653530992;0,3900021422563097;-14,221625415814692;35,24887844477676;-9,094515823847164
12:27:51.002;0;Mov;1;21531;10,68;0;0;0;0,03230079117447623;-0,04904935066506508;0,00837427881394343;7,293923764763329;-11,41392254402295;1,2207403790398876
12:27:51.002;0;Mov;1;21532;10,68;0;0;0;0,08613544561553926;0,01794488357188635;-0,00837427881394343;8,301034577471237;-11,108737449262978;1,7700735496078372
12:27:51.002;0;Mov;1;21533;10,68;0;0;0;0,0358897671437727;0,11365092928861355;-0,07656483806354335;9,399700918607135;-10,315256202887051;1,4343699453718681
12:27:51.002;0;Mov;1;21534;10,68;0;0;0;0,12800683316579944;-0,00598162785729545;-0,1076693014313181;10,376293221839045;-9,308145390179144;0,8545182653279214
12:27:51.002;0;Mov;1;21535;10,68;0;0;0;-0,026319163317180778;0,056227302603658026;-0,0023926511894857296;9,12503433332316;-8,514664143803216;0,9460737937559129
12:27:51.003;0;Mov;1;21536;10,37;0;0;0;0,13757744071779535;-0,028711815205179753;-0,1064729773500206;8,270516067995239;-8,48414563432722;0,793481246375927
12:27:51.003;0;Mov;1;21537;10,37;0;0,5503097628711814;0;0,5503097628711814;-0,20457167868015075;-0,34454178246215705;7,690664387951292;-6,561479537339396;0,8545182653279214
12:27:51.003;0;Mov;1;21538;10,37;0;0,7871822140987884;0;0,7871822140987884;-0,2667806203173162;-0,44383679297196876;7,629627368999298;-1,3428144169438765;2,7466658528397474
12:27:51.003;0;Mov;1;21539;10,37;0;0,9259560161519211;0;0,9259560161519211;-0,3265968988902707;-0,2273018585772271;9,430219428083133;6,378368480483413;5,127109591967528
12:27:51.004;0;Mov;1;21540;10,37;-1,0120914096118045;0,9331339457380902;0;0,9331339457380902;-1,0120914096118045;-0,0933133975541322;11,810663167210913;15,839106418042542;9,094515823847164
12:27:51.004;0;Mov;1;21541;10,06;-1,2441785943174535;0,9917539225821711;0;0,9917539225821711;-1,2441785943174535;0,3433454509300516;17,670216986602373;25,910214545121615;13,855403302102726
12:27:51.004;0;Mov;1;21542;10,06;-1,19632557145909;0,937919271866512;0,5180089605204932;0,937919271866512;-1,19632557145909;0,5180089605204932;27,466658528397474;37,079989013336586;16,785180211798455
12:27:51.004;0;Mov;1;21543;10,06;0;0;0,6735312848101749;0,25362103307061984;-0,37564622347750787;0,6735312848101749;37,26310007019257;46,113467818231754;18,646809289834284
12:27:51.004;0;Mov;1;21544;10,06;1,5863276839121678;0;0;0,25720999786370435;1,5863276839121678;0,10527665326872311;40,65065462202826;52,12561418500321;24,964140751365704
12:27:51.004;0;Mov;1;21545;10,06;-0,6735312848101749;0;0,8613544114505448;0,42828457246429336;-0,6735312848101749;0,8613544114505448;38,453321939756464;59,66368602557451;32,624286629840995
12:27:51.009;0;Wrist;1;2309;9,84;0;0;0;-0,2584063293958098;-0,08493911408343378;0,30386668918996246;-15,2287362285226;31,464583269753106;-8,331553086947233
12:27:51.009;0;Wrist;1;2310;9,84;0;0;0;-0,0945097216354297;-0,11006195704472106;0,1866267951082644;-16,022217474898525;27,253028962065493;-6,317331461531419
12:27:51.009;0;Wrist;1;2311;9,84;0;0;0;-0,30386668918996246;-0,1411664204124958;0,08733176969683676;-16,51051362651448;23,163548692281868;-5,188146610919523
12:27:51.009;0;Wrist;1;2312;9,84;0;0;0;0,45221108389347514;0,06101260637965598;-0,11006195704472106;-18,402661214026306;16,3274025696585;-3,5706656086916717
12:27:51.009;0;Wrist;1;2313;9,84;0,5622730185857723;0;0;0,22371287888252664;0,5622730185857723;0,20217903051755579;-22,40058595538194;14,831995605334635;-5,920590838343455
12:27:51.031;0;Mov;1;21546;9,93;-1,7741508701590014;0,6137150062372204;1,4451613380077517;0,6137150062372204;-1,7741508701590014;1,4451613380077517;46,05243079927976;67,47642445142979;37,04947050386059
12:27:51.031;0;Mov;1;21547;9,93;-1,6999786132007813;0;2,110318451109348;0,4809228916478469;-1,6999786132007813;2,110318451109348;57,80205694753868;74,09894100772118;40,37598803674429
12:27:51.032;0;Mov;1;21548;9,93;-2,433326355403302;0;2,3627430036317025;0,4055543627639851;-2,433326355403302;2,3627430036317025;71,13864558854945;82,18634601886043;44,46546830652791
12:27:51.032;0;Mov;1;21549;9,93;-3,285110114597003;0,9355266088023011;3,543516294976653;0,9355266088023011;-3,285110114597003;3,543516294976653;89,20560319833979;89,57182531205176;52,33924375133518
12:27:51.032;0;Mov;1;21550;9,93;-2,445289611117893;1,702371335871456;5,01619340723899;1,702371335871456;-2,445289611117893;5,01619340723899;109,22574541459394;100,89419232764672;61,861018707846306
12:27:51.063;0;Mov;1;21551;9,84;-1,5827387787255471;2,925016022217475;6,947062784203619;2,925016022217475;-1,5827387787255471;6,947062784203619;113,10159611804559;112,24707785271767;71,7184972685934
12:27:51.064;0;Mov;1;21552;9,84;-2,3986327707754755;4,28045318079165;9,074129459517197;4,28045318079165;-2,3986327707754755;9,074129459517197;96,56056398205511;112,91848506118961;72,93923764763329
12:27:51.064;0;Mov;1;21553;9,84;-6,47571060441908;5,507882835627308;8,13142509994812;5,507882835627308;-6,47571060441908;8,13142509994812;68,60560930204169;116,73329874568925;65,61479537339396
12:27:51.064;0;Mov;1;21554;9,84;-7,917282918027284;6,729331339457381;7,1899166844691305;6,729331339457381;-7,917282918027284;7,1899166844691305;70,19257179479354;113,89507736442152;61,83050019837031
12:27:51.064;0;Mov;1;21555;9,84;-8,327622875148778;7,953172685171056;5,897885067293314;7,953172685171056;-8,327622875148778;5,897885067293314;76,29627368999299;111,9724112674337;56,15405743583484
12:27:51.069;0;Wrist;1;2314;9,91;0;0;0;0,3708609271523179;0,2667806203173162;0,239265114291818;-23,407696768089846;18,4942167424543;-9,521774956511123
12:27:51.070;0;Wrist;1;2315;9,91;0;0;0;0,07776116214484084;0,16030763551648763;0,2799401777607807;-23,83495590075381;23,346659749137853;-12,085329752494888
12:27:51.070;0;Wrist;1;2316;9,91;0;0;0,515616357062746;-0,4258919094000824;0,2990813928647725;0,515616357062746;-24,872585222937712;25,025177770317697;-13,428144169438765
12:27:51.070;0;Wrist;1;2317;9,91;0;0;0,581414263492996;-0,1961974026602603;-0,28113650929288614;0,581414263492996;-25,29984435560167;25,11673329874569;-13,275551622058778
12:27:51.070;0;Wrist;1;2318;9,91;0;-0,9187780865657521;0,774022656655324;-0,9187780865657521;0,010766930701942408;0,774022656655324;-22,91940061647389;26,459547715689567;-10,52888576921903
12:27:51.121;0;Mov;1;21556;9,88;-10,000085833307901;9,39594141972106;5,9086519020661035;9,39594141972106;-10,000085833307901;5,9086519020661035;72,08471938230537;109,8666341135899;46,87643055513169
12:27:51.121;0;Mov;1;21557;9,88;-11,159324739829707;10,783679082613606;5,814142277291177;10,783679082613606;-11,159324739829707;5,814142277291177;64,76027710806605;102,93893246253853;32,34962004455702
12:27:51.121;0;Mov;1;21558;9,88;-11,243067529831842;12,164238219855342;4,859474662007508;12,164238219855342;-11,243067529831842;4,859474662007508;54,93331705679495;92,53212073122349;14,77095858638264
12:27:51.121;0;Mov;1;21559;9,88;-10,711899548326059;13,10455069124424;4,510147404400769;13,10455069124424;-10,711899548326059;4,510147404400769;39,49095126194037;80,53834650715659;-2,838221381267739
12:27:51.121;0;Mov;1;21560;9,88;-9,635206534012879;13,701516579180273;4,797265541550951;13,701516579180273;-9,635206534012879;4,797265541550951;21,454512161626027;66,43879512924589;-17,822809533982362
12:27:51.132;0;Wrist;1;2319;9,98;0;0;0;0,06220893046095347;-0,13997008888039034;0,4617816765438551;-20,813623462630087;26,581621753593556;-7,965330973235267
12:27:51.132;0;Wrist;1;2320;9,98;0;0;0;0,004785302378971459;-0,11245460520731605;0,354112375112537;-19,5928830835902;29,969176305429244;-6,40888698995941
12:27:51.132;0;Wrist;1;2321;9,98;0;0;0;0,015552232615238368;0,02273018548518231;-0,06101260637965598;-17,029328287606432;33,32621234778893;-6,073183385723441
12:27:51.132;0;Wrist;1;2322;9,98;0;-0,661568029095584;0;-0,661568029095584;0,1985900508228553;0,08613544561553926;-17,029328287606432;32,593768120365;-6,347849971007416
12:27:51.132;0;Wrist;1;2323;9,98;0;-0,5455244963492233;0;-0,5455244963492233;0,25720999786370435;0,05503097852236053;-16,388439588610492;31,006805627613147;-6,469924008911405
12:27:51.182;0;Mov;1;21561;9,95;-8,203204634235664;14,024524483474227;5,572484797967467;14,024524483474227;-8,203204634235664;5,572484797967467;4,394665364543596;50,0198370311594;-27,771843623157444
12:27:51.183;0;Mov;1;21562;9,95;-6,315402596362194;14,195599803155615;5,733988750114444;14,195599803155615;-6,315402596362194;5,733988750114444;-9,12503433332316;30,732139042329173;-31,5256202887051
12:27:51.183;0;Mov;1;21563;9,95;-4,678829405346843;14,00538365581225;5,780645352031007;14,00538365581225;-4,678829405346843;5,780645352031007;-23,102511673329875;10,559404278695029;-29,053621021149326
12:27:51.183;0;Mov;1;21564;9,95;-4,199102755821405;13,45507389294107;6,671907902768029;13,45507389294107;-4,199102755821405;6,671907902768029;-37,232581560716575;-9,552293465987121;-22,858363597521898
12:27:51.183;0;Mov;1;21565;9,95;-4,060328894161809;12,786327517014069;7,582311758018738;12,786327517014069;-4,060328894161809;7,582311758018738;-47,02902310251167;-29,23673207800531;-17,303994872890406
12:27:51.189;0;Wrist;1;2324;10,02;0;0;0;-0,3708609271523179;-0,06579790643024995;-0,27635121296769616;-13,733329264198737;30,487990966521195;-7,293923764763329
12:27:51.189;0;Wrist;1;2325;10,02;0;0;0;-0,2942960965395825;-0,20935697500534073;-0,15911130398438214;-13,428144169438765;23,83495590075381;-6,19525742362743
12:27:51.189;0;Wrist;1;2326;10,02;0;0;0;-0,16270028367908262;-0,24285409398651844;-0,38043154960592973;-11,474959562974945;19,5928830835902;-3,8758507034516434
12:27:51.189;0;Wrist;1;2327;10,02;0;0;0;-0,35291604358043155;-0,08015381775824382;-0,14236275194460127;-11,41392254402295;14,313180944242683;-1,0681478316599018
12:27:51.189;0;Wrist;1;2328;10,02;0;0;0;-0,2871181371501816;-0,06579790643024995;0,24524674214911343;-12,756736960966826;12,93984801782281;1,1291848506118962
12:27:51.212;0;Mov;1;21566;9,85;-3,867720620212409;12,057765816217536;7,7773126354258855;12,057765816217536;-3,867720620212409;7,7773126354258855;-54,506057924130985;-48,8601336710715;-15,381328775902585
12:27:51.212;0;Mov;1;21567;9,85;-3,7301431794946134;11,307669492172002;7,400470080416272;11,307669492172002;-3,7301431794946134;7,400470080416272;-61,9830927457503;-67,35435041352581;-18,463698232978302
12:27:51.212;0;Mov;1;21568;9,85;-3,415509506515702;10,227387691885129;7,493783761101108;10,227387691885129;-3,415509506515702;7,493783761101108;-69,09390545365764;-81,85064241462447;-26,703695791497545
12:27:51.212;0;Mov;1;21569;9,85;-2,5984190935239724;8,9556938001648;7,6122198973052155;8,9556938001648;-2,5984190935239724;7,6122198973052155;-75,22812585833307;-94,08856471449934;-39,0942106387524
12:27:51.212;0;Mov;1;21570;9,85;-1,5420636854533525;7,729459612567522;7,472249614703818;7,729459612567522;-1,5420636854533525;7,472249614703818;-78,3410138248848;-103,45774712363048;-52,49183629871517
12:27:51.231;0;Wrist;1;2329;9,98;0;0;-0,8721213654362621;0,08493911408343378;0,10527665326872311;-0,8721213654362621;-11,017181920834986;18,768883327738273;2,380443739127781
12:27:51.231;0;Wrist;1;2330;9,98;0;0;-1,1712027583010345;-0,07297585836884289;0,13638112408730582;-1,1712027583010345;-15,167699209570605;6,988738670003357;0,7324442274239327
12:27:51.231;0;Wrist;1;2331;9,98;0;0;0;-0,43665883358256785;0,0837427900021363;-0,4976714436876278;-20,75258644367809;-4,760887478255562;-0,24414807580797754
12:27:51.231;0;Wrist;1;2332;9,98;0;-0,5479170998069705;-0,6472121699232459;-0,5479170998069705;0,09690236979802469;-0,6472121699232459;-21,942808313241983;-8,209479049043244;-0,4882961516159551
12:27:51.231;0;Wrist;1;2333;9,98;0;0;0;-0,417517618478576;0,004785302378971459;-0,4462294560361797;-23,499252296517838;-13,91644032105472;-0,640888698995941
12:27:51.300;0;Mov;1;21571;10,04;-0,588592193079165;6,336936742759484;7,2138431958983125;6,336936742759484;-0,588592193079165;7,2138431958983125;-79,68382824182866;-107,6082644123661;-65,06546220282601
12:27:51.301;0;Mov;1;21572;10,04;0,5562913907284768;5,04849391155736;5,8368723677785574;5,04849391155736;0,5562913907284768;5,8368723677785574;-77,76116214484085;-108,82900479140599;-76,32679219946898
12:27:51.301;0;Mov;1;21573;10,04;1,269301407475509;4,086648247474593;2,2658407753990297;4,086648247474593;1,269301407475509;2,2658407753990297;-74,03790398876919;-101,16885891293069;-86,18427076021607
12:27:51.301;0;Mov;1;21574;10,04;1,1640248287148656;3,0913054197058014;-1,6198248475981933;3,0913054197058014;1,1640248287148656;-1,6198248475981933;-68,02575762199774;-81,5149388103885;-94,45478682821131
12:27:51.301;0;Mov;1;21575;10,04;0;1,4535355693227943;-3,177440813165685;1,4535355693227943;0,007177953801294938;-3,177440813165685;-60,30457472457045;-51,45420697653127;-103,12204351939451
12:27:51.330;0;Mov;1;21576;9,94;-1,6497329868846706;-0,5706473095072787;-3,0362743480483414;-0,5706473095072787;-1,6497329868846706;-3,0362743480483414;-48,49391155735954;-19,5623645741142;-115,69566942350535
12:27:51.330;0;Mov;1;21577;9,94;-2,8101689104129153;-2,4787865363780632;-3,8485795541245764;-2,4787865363780632;-2,8101689104129153;-3,8485795541245764;-31,22043519394513;8,758812219611194;-131,4127018036439
12:27:51.330;0;Mov;1;21578;9,94;-3,0901089987640002;-3,655971041749321;-5,55334349345378;-3,655971041749321;-3,0901089987640002;-5,55334349345378;-11,688589129306925;33,11258278145695;-147,03817865535447
12:27:51.330;0;Mov;1;21579;9,94;-2,32685323648793;-4,315146526993622;-7,455501152073733;-4,315146526993622;-2,32685323648793;-7,455501152073733;5,890072328867458;55,269020661030915;-158,6962492751854
12:27:51.331;0;Mov;1;21580;9,94;-0,8876735859439375;-4,672847777489547;-8,669771607104709;-4,672847777489547;-0,8876735859439375;-8,669771607104709;15,717032380138553;74,49568163090915;-162,84676656392102
12:27:51.339;0;Wrist;1;2334;10,28;0;-0,5383465071565905;0;-0,5383465071565905;-0,07895748622613834;0,04904935066506508;-24,842066713461715;-19,074068422498247;-0,7629627368999298
12:27:51.339;0;Wrist;1;2335;10,28;0;0;0,5850032282860805;-0,4569963802186651;-0,14954069643238624;0,5850032282860805;-24,445326090273753;-21,881771294289987;0,15259254737998595
12:27:51.339;0;Wrist;1;2336;10,28;0;0;1,06472975859859;-0,09809870133013016;-0,1794488357188635;1,06472975859859;-21,17984557634205;-20,966216010010072;2,166814172795801
12:27:51.339;0;Wrist;1;2337;10,28;0;0;1,1329203876995149;0,4223029446069979;-0,1507370279644917;1,1329203876995149;-15,655995361186559;-17,761772515030366;3,7842951750236518
12:27:51.340;0;Wrist;1;2338;10,28;0;0,940311934930723;1,203503501045259;0,940311934930723;-0,0011963255947428648;1,203503501045259;-10,345774712363049;-12,237922299874874;4,272591326639607
12:27:51.342;0;Wrist;1;2339;10,04;0;1,2070925254448073;1,1209571319849239;1,2070925254448073;0,08972441785943175;1,1209571319849239;-5,493331705679495;-6,103701895199438;2,5940733054597613
12:27:51.342;0;Wrist;1;2340;10,04;0;0,7752189583841975;1,53368945413831;0,7752189583841975;0,0023926511894857296;1,53368945413831;-2,1057771538438064;1,1291848506118962;-0,4272591326639607
12:27:51.344;0;Wrist;1;2341;10,04;0;0,515616357062746;1,735868380344554;0,515616357062746;-0,13997008888039034;1,735868380344554;3,204443494979705;19,65392010254219;-1,6479995117038484
12:27:51.344;0;Wrist;1;2342;10,04;0;0;1,7430464291436507;0,33018586368335523;-0,19380473959604938;1,7430464291436507;10,315256202887051;38,85006256294442;-3,6317026276436657
12:27:51.344;0;Wrist;1;2343;10,04;-0,6101260414441358;1,0348216193121127;1,3805597333063753;1,0348216193121127;-0,6101260414441358;1,3805597333063753;19,043549913022247;53,19376201666311;-7,965330973235267
12:27:51.362;0;Mov;1;21581;9,85;0,8146977499275185;-5,3284339999084445;-8,61593695638905;-5,3284339999084445;0,8146977499275185;-8,61593695638905;10,52888576921903;87,86278878139592;-158,4215826899014
12:27:51.362;0;Mov;1;21582;9,85;2,048109330652791;-6,280709250160222;-7,073873390148625;-6,280709250160222;2,048109330652791;-7,073873390148625;-14,67940305795465;92,86782433545946;-146,7635120700705
12:27:51.363;0;Mov;1;21583;9,85;2,641486909466842;-7,601453062532426;-4,537663178655355;-7,601453062532426;2,641486909466842;-4,537663178655355;-63,17331461531419;83,8038270210883;-131,87047944578387
12:27:51.363;0;Mov;1;21584;9,85;2,4357189588610493;-8,883914265877255;-2,2945524937437054;-8,883914265877255;2,4357189588610493;-2,2945524937437054;-125,0038148136845;59,48057496871853;-119,05270546586505
12:27:51.363;0;Mov;1;21585;9,85;2,5170691454054386;-10,07545415356914;-2,1737235156559955;-10,07545415356914;2,5170691454054386;-2,1737235156559955;-195,745719779046;29,633472701193273;-112,09448530533768
12:27:51.371;0;Wrist;1;2344;9,93;-0,5658619833788567;2,0050417531357767;1,1448836434141056;2,0050417531357767;-0,5658619833788567;1,1448836434141056;22,27851191747795;68,20886867885372;-10,681478316599017
12:27:51.372;0;Wrist;1;2345;9,93;0;2,1282633346812343;2,1354411450544757;2,1282633346812343;-0,1507370279644917;2,1354411450544757;22,7973265785699;86,24530777916806;-13,48918118839076
12:27:51.372;0;Wrist;1;2346;9,93;-0,6125187045083468;4,797265541550951;2,1091220301675464;4,797265541550951;-0,6125187045083468;2,1091220301675464;26,0933256019776;117,92352061525315;-17,181920834986418
12:27:51.372;0;Wrist;1;2347;9,93;0;6,944669942320017;2,529032401120029;6,944669942320017;-0,119632557145909;2,529032401120029;32,563249610889;156,3158055360576;-27,893917661061433
12:27:51.372;0;Wrist;1;2348;9,93;0;4,909720049897763;5,668190843684195;4,909720049897763;0,07895748622613834;5,668190843684195;47,39524521622364;220,7098605304117;-57,89361247596668
12:27:51.421;0;Mov;1;21586;9,9;2,741978162099063;-10,899722853785821;-6,451784092989898;-10,899722853785821;2,741978162099063;-6,451784092989898;-247,38303781243323;4,272591326639607;-111,9113742484817
12:27:51.422;0;Mov;1;21587;9,9;4,28045318079165;-11,878316980498672;-11,384234710226753;-11,878316980498672;4,28045318079165;-11,384234710226753;-252,81533249916075;-5,676442762535478;-105,65507980590228
12:27:51.422;0;Mov;1;21588;9,9;7,014057111575671;-14,134586626789147;-11,223926702169866;-14,134586626789147;7,014057111575671;-11,223926702169866;-204,5960875270852;-6,805627613147374;-83,13241981261635
12:27:51.422;0;Mov;1;21589;9,9;11,343559259315775;-16,51886425366985;-7,940013008514664;-16,51886425366985;11,343559259315775;-7,940013008514664;-138,30988494521927;-13,36710715048677;-49,25687429425947
12:27:51.422;0;Mov;1;21590;9,9;16,875368129520556;-18,95697462385937;-5,1705193105868705;-18,95697462385937;16,875368129520556;-5,1705193105868705;-109,7140415662099;-30,21332438123722;-11,352885525070956
12:27:51.484;0;Mov;1;21591;9,96;21,328093050935394;-20,342320398571733;-5,851228465376751;-20,342320398571733;21,328093050935394;-5,851228465376751;-132,17566454054383;-55,39109469893491;30,610065004425184
12:27:51.484;0;Mov;1;21592;9,96;22,98141422772912;-20,38299584948271;-10,762145413068026;-20,38299584948271;22,98141422772912;-10,762145413068026;-165,65446943571277;-74,46516312143315;82,24738303781243
12:27:51.484;0;Mov;1;21593;9,96;20,448793755912963;-20,32557145908994;-14,059218306527908;-20,32557145908994;20,448793755912963;-14,059218306527908;-171,63609729300822;-77,24234748374889;143,4675130466628
12:27:51.484;0;Mov;1;21594;9,96;14,61072401348918;-19,818329035309915;-16,126468703268532;-19,818329035309915;14,61072401348918;-16,126468703268532;-143,6811426129948;-68,17835016937772;195,04379406109805
12:27:51.484;0;Mov;1;21595;9,96;-2,685750907925657;-24,566545609912414;-5,498312421796319;-24,566545609912414;-2,685750907925657;-5,498312421796319;-82,27790154728844;-56,4897610400708;217,200231940672
12:27:51.489;0;Wrist;1;2349;10,26;0;5,006622516556291;10,881777970213935;5,006622516556291;0,21892758255733666;10,881777970213935;99,85656300546282;317,7282021546068;-103,42722861415449
12:27:51.489;0;Wrist;1;2350;10,26;2,8173467207861567;5,311685537278359;11,06361869411298;5,311685537278359;2,8173467207861567;11,06361869411298;177,73979918820766;445,1124607074191;-157,29239783928952
12:27:51.489;0;Wrist;1;2351;10,26;2,045716727195044;8,368297372356334;9,813458471938231;8,368297372356334;2,045716727195044;9,813458471938231;207,89208655049288;570,3909421063876;-188,97061067537462
12:27:51.489;0;Wrist;1;2352;10,26;0,9845759929960021;6,18978841135899;3,4729331816309092;6,18978841135899;0,9845759929960021;3,4729331816309092;186,62068544572284;643,1165501876889;-187,68883327738274
12:27:51.489;0;Wrist;1;2353;10,26;0;3,6655416940061647;5,140611171300393;3,6655416940061647;-0,3098483170472579;5,140611171300393;153,08084353160191;628,0098879970702;-195,22690511795403
12:27:51.491;0;Wrist;1;2354;10,03;5,669386787774285;4,209869590594195;7,554795983764153;4,209869590594195;5,669386787774285;7,554795983764153;130,92440565202796;652,9129917294839;-204,74868007446517
12:27:51.491;0;Wrist;1;2355;10,03;8,058449621570482;-8,25464644306772;10,949967764824367;-8,25464644306772;8,058449621570482;10,949967764824367;67,35435041352581;686,0560930204169;-233,28348643452253
12:27:51.491;0;Wrist;1;2356;10,03;11,292117450483719;-8,280965796380505;32,37855159154027;-8,280965796380505;11,292117450483719;32,37855159154027;-21,759697256385998;326,57856990264594;-190,49653614917446
12:27:51.491;0;Wrist;1;2357;10,03;6,360863254188666;13,657253295999023;19,500106814783166;13,657253295999023;6,360863254188666;19,500106814783166;-19,5623645741142;52,24768822290719;-111,27048554948577
12:27:51.491;0;Wrist;1;2358;10,03;5,20281981490524;8,867165326395458;6,169451162755211;8,867165326395458;5,20281981490524;6,169451162755211;26,062807092501604;71,7795342875454;-105,25833918271432
12:27:51.511;0;Mov;1;21596;9,86;-35,46267967772454;-28,555095446638386;-13,075838496047853;-28,555095446638386;-35,46267967772454;-13,075838496047853;238,59370708334606;-38,972136600848415;156,3158055360576
12:27:51.511;0;Mov;1;21597;9,86;-28,025122455519274;-27,204443494979706;-22,523222678304393;-27,204443494979706;-28,025122455519274;-22,523222678304393;380,07751701406903;-83,74279000213629;83,8038270210883
12:27:51.512;0;Mov;1;21598;9,86;4,68720387508774;1,9595813337351604;5,873958555864132;1,9595813337351604;4,68720387508774;5,873958555864132;522,080141605884;-255,3178502761925;-4,638813440351573
12:27:51.512;0;Mov;1;21599;9,86;39,19999923703726;26,62542153691214;26,94364566484573;26,62542153691214;39,19999923703726;26,94364566484573;255,47044282357248;-235,8775597399823;-1,4343699453718681
12:27:51.512;0;Mov;1;21600;9,86;-7,322708918271432;15,857295449690238;-14,726767784661398;15,857295449690238;-7,322708918271432;-14,726767784661398;34,7605822931608;-62,44087038789026;31,647694326609088
12:27:51.519;0;Wrist;1;2359;9,93;4,644136059144872;9,931895084994048;4,62140596865749;9,931895084994048;4,644136059144872;4,62140596865749;40,52858058412427;48,371837519455546;-107,5777459028901
12:27:51.519;0;Wrist;1;2360;9,93;6,199359302041688;10,567143581957458;7,3956848735007785;10,567143581957458;6,199359302041688;7,3956848735007785;37,47672963652455;44,373912778099914;-108,03552354503006
12:27:51.519;0;Wrist;1;2361;9,93;8,808544991912594;12,00751995147557;9,793121700186163;12,00751995147557;8,808544991912594;9,793121700186163;22,370067445905942;39,948728904080326;-102,35908078249459
12:27:51.519;0;Wrist;1;2362;9,93;11,735953856013673;13,669216551713614;10,978679960020752;13,669216551713614;11,735953856013673;10,978679960020752;-7,660145878475295;38,57539597766045;-86,91671498764
12:27:51.519;0;Wrist;1;2363;9,93;12,77556115909299;14,640632152775659;12,639179662465285;14,640632152775659;12,77556115909299;12,639179662465285;-46,26606036561174;32,685323648792995;-64,66872157963805
12:27:51.571;0;Mov;1;21601;9,9;-8,764281708731346;-8,163726081118199;2,4787865363780632;-8,163726081118199;-8,764281708731346;2,4787865363780632;72,38990447706534;-6,683553575243385;43,000579851680044
12:27:51.571;0;Mov;1;21602;9,9;4,8235848948637345;-1,3386883383053072;3,5853876899777215;-1,3386883383053072;4,8235848948637345;3,5853876899777215;58,10724204229865;-22,217474898525957;54,292428357799004
12:27:51.571;0;Mov;1;21603;9,9;3,5471053193762017;2,7706901188695943;0;2,7706901188695943;3,5471053193762017;0,27635121296769616;57,80205694753868;-6,8666646320993685;45,07583849604785
12:27:51.571;0;Mov;1;21604;9,9;2,5063020722067932;-2,073232263023774;1,022858363597522;-2,073232263023774;2,5063020722067932;1,022858363597522;46,113467818231754;0,27466658528397475;28,443250831629385
12:27:51.571;0;Mov;1;21605;9,9;-0,6208929954298532;-2,3077121704000976;0;-2,3077121704000976;-0,6208929954298532;-0,2859218056180761;34,66902676473281;-12,482070375682852;16,113773003326518
12:27:51.634;0;Mov;1;21606;9,96;0,6687460182882168;0,708224750225074;0;0,708224750225074;0,6687460182882168;-0,37564622347750787;32,28858302560503;-27,344584490493485;15,015106662190618
12:27:51.634;0;Mov;1;21607;9,96;0;-0,522794286648915;0;-0,522794286648915;-0,15671865582178715;0,2548173646027253;30,793176061281166;-26,123844111453597;16,266365550706503
12:27:51.634;0;Mov;1;21608;9,96;0,9427045979949339;-0,5084383678701132;0;-0,5084383678701132;0,9427045979949339;0,40435806103511157;27,61925107577746;-27,31406598101749;16,418958098086488
12:27:51.634;0;Mov;1;21609;9,96;0,6208929954298532;0,527579612777337;0;0,527579612777337;0,6208929954298532;0,2548173646027253;23,194067201757868;-27,558214056825463;11,993774224066897
12:27:51.634;0;Mov;1;21610;9,96;0,7094210519539476;1,1245460371715446;0;1,1245460371715446;0,7094210519539476;0,358897671437727;17,517624439222388;-21,423993652150028;9,03347880489517
12:27:51.641;0;Wrist;1;2364;10,25;12,29224524674215;14,968425740836818;14,141765152439955;14,968425740836818;12,29224524674215;14,141765152439955;-74,40412610248116;20,142216254158146;-38,48384044923246
12:27:51.641;0;Wrist;1;2365;10,25;12,11758209479049;14,698056543168432;15,242384678182317;14,698056543168432;12,11758209479049;15,242384678182317;-82,15582750938444;5,371257667775506;-13,763847773674733
12:27:51.641;0;Wrist;1;2366;10,25;12,052980132450331;14,35590685750908;15,870455603198339;14,35590685750908;12,052980132450331;15,870455603198339;-78,76827295754876;-13,977477340006715;10,254219183935056
12:27:51.641;0;Wrist;1;2367;10,25;11,913009849848933;13,870199056978057;15,741252632221443;13,870199056978057;11,913009849848933;15,741252632221443;-74,77034821619313;-36,01184118167669;35,12680440687277
12:27:51.641;0;Wrist;1;2368;10,25;11,365092928861355;13,018415059358501;15,534287545396284;13,018415059358501;11,365092928861355;15,534287545396284;-76,021607104709;-59,7857600634785;57,19168675801874
12:27:51.642;0;Wrist;1;2369;10,03;10,159196943571276;12,15107902005066;15,539073229163488;12,15107902005066;10,159196943571276;15,539073229163488;-82,5525681325724;-88,38160344248787;74,22101504562517
12:27:51.643;0;Wrist;1;2370;10,03;8,426917706839198;11,19521450697348;15,174193929868466;11,19521450697348;8,426917706839198;15,174193929868466;-85,66545609912411;-119,602038636433;85,48234504226814
12:27:51.643;0;Wrist;1;2371;10,03;7,308352820673238;9,980944051942503;14,48750267036958;9,980944051942503;7,308352820673238;14,48750267036958;-80,4467909787286;-150,36469618823816;91,98278756065554
12:27:51.643;0;Wrist;1;2372;10,03;6,915958223975341;8,157744453260904;14,822473830378124;8,157744453260904;6,915958223975341;14,822473830378124;-67,20175786614581;-182,6837977233192;95,21774956511123
12:27:51.643;0;Wrist;1;2373;10,03;6,822645020142216;6,565435022278512;13,103353793450728;6,565435022278512;6,822645020142216;13,103353793450728;-54,84176152836695;-217,261268959624;101,35196996978668
12:27:51.661;0;Mov;1;21611;9,88;0,7189917042107914;0,9187780865657521;0;0,9187780865657521;0,7189917042107914;0,03230079117447623;7,507553331095309;-10,376293221839045;7,843256935331278
12:27:51.663;0;Mov;1;21612;9,88;0;0;0;0,363682967762917;0,3086520153183844;0,0011963255947428648;1,586962492751854;-2,2583697012237924;5,951109347819452
12:27:51.663;0;Mov;1;21613;9,88;0;0;0;-0,26438795725310527;0,1435590685750908;0,1387737722499008;0,8239997558519242;2,0142216254158147;4,791405987731559
12:27:51.663;0;Mov;1;21614;9,88;0;0;0;-0,46776330440115055;-0,11006195704472106;0,20816065837485123;0,8239997558519242;3,326517532883694;3,936887722403638
12:27:51.663;0;Mov;1;21615;9,88;-0,5933775192075869;0;0;-0,39119847378841516;-0,5933775192075869;0,4294808741931669;4,577776421399578;2,1362956633198036;3,5096285897396773
12:27:51.669;0;Wrist;1;2374;9,93;6,387182130649739;5,3834650715659045;8,946122432630391;5,3834650715659045;6,387182130649739;8,946122432630391;-49,56205938901944;-248,14600054933317;109,56144901882992
12:27:51.669;0;Wrist;1;2375;9,93;5,711258182775353;4,25891903439436;5,479171117282632;4,25891903439436;5,711258182775353;5,479171117282632;-49,77568895535142;-269,29532761619924;116,88589129306925
12:27:51.669;0;Wrist;1;2376;9,93;4,76376861629078;3,0147404400769067;4,154838995788445;3,0147404400769067;4,76376861629078;4,154838995788445;-52,33924375133518;-282,81502731406596;122,31818597979675
12:27:51.669;0;Wrist;1;2377;9,93;3,932322344126713;1,1472762468718527;4,264900662251655;1,1472762468718527;3,932322344126713;4,264900662251655;-49,89776299325541;-295,17502365184487;124,24085207678456
12:27:51.669;0;Wrist;1;2378;9,93;3,233668067339091;-0,8242683425778985;4,270882290108951;-0,8242683425778985;3,233668067339091;4,270882290108951;-39,76561784722434;-309,27457502975557;124,9427777947325
12:27:51.729;0;Wrist;1;2379;9,97;2,741978162099063;-2,302926725058748;3,7433028561510056;-2,302926725058748;2,741978162099063;3,7433028561510056;-26,764732810449537;-322,5196081423383;123,41685232093265
12:27:51.729;0;Wrist;1;2380;9,97;3,0506302072206792;-3,3329631374553665;2,9453535092471084;-3,3329631374553665;3,0506302072206792;2,9453535092471084;-18,127994628742332;-328,9284951322977;119,63255714590899
12:27:51.729;0;Wrist;1;2381;9,97;3,3556932279427474;-4,189532341990417;3,230079042939543;-4,189532341990417;3,3556932279427474;3,230079042939543;-18,25006866664632;-329,96612445448164;114,99374370555742
12:27:51.729;0;Wrist;1;2382;9,97;3,481307412945952;-5,452852240821558;4,266097083193457;-5,452852240821558;3,481307412945952;4,266097083193457;-21,454512161626027;-329,78301339762567;109,01211584826197
12:27:51.729;0;Wrist;1;2383;9,97;3,3341593199713127;-6,446998409222694;4,475454058198798;-6,446998409222694;3,3341593199713127;4,475454058198798;-17,15140232551042;-330,82064271980954;102,48115482039857
12:27:51.781;0;Mov;1;21616;10,16;-0,7070284484962004;0;0,5192053218558306;-0,47135229899746695;-0,7070284484962004;0,5192053218558306;10,925626392406995;1,8921475875118259;4,7303689687795645
12:27:51.781;0;Mov;1;21617;10,16;-0,7165990411465804;0;0,5933775192075869;-0,354112375112537;-0,7165990411465804;0,5933775192075869;16,51051362651448;2,2583697012237924;5,76799829096347
12:27:51.781;0;Mov;1;21618;10,16;-0,8099124237990967;0;0,6388378790017396;-0,004785302378971459;-0,8099124237990967;0,6388378790017396;21,668141727958005;4,0284432508316295;6,95822016052736
12:27:51.782;0;Mov;1;21619;10,16;-0,6472121699232459;0;0,6412305420659505;0,24165777735602892;-0,6472121699232459;0,6412305420659505;26,245918149357585;9,430219428083133;8,423108615375225
12:27:51.782;0;Mov;1;21620;10,16;0;0;0,7046357854319895;0,17227089123107853;-0,01794488357188635;0,7046357854319895;30,030213324381236;16,724143192846462;7,93481246375927
12:27:51.786;0;Mov;1;21621;9,97;0;0;0,7022431223677785;-0,18303781541356395;0,05024567474636257;0,7022431223677785;32,685323648792995;24,414807580797753;4,638813440351573
12:27:51.786;0;Mov;1;21622;9,97;0;0;0,7919675402272103;-0,2823328408249916;0,2476394052133244;0,7919675402272103;33,35673085726493;28,59584337900937;1,5564439832758568
12:27:51.786;0;Mov;1;21623;9,97;0;0;0,7118137150181585;-0,02273018548518231;0,12681051653530992;0,7118137150181585;33,661915952024906;32,28858302560503;-1,5259254737998595
12:27:51.786;0;Mov;1;21624;9,97;0;0,8996368416585284;1,455928291993469;0,8996368416585284;0,20337534714804528;1,455928291993469;28,71791741691336;35,706656086916716;-0,7324442274239327
12:27:51.787;0;Mov;1;21625;9,97;0;1,1939329680013429;1,9416364501632741;1,1939329680013429;0,3050630207220679;1,9416364501632741;16,541032135990477;51,45420697653127;3,3875545518356884
12:27:51.826;0;Mov;1;21626;9,85;0,5407391702208014;2,0660542142246774;2,232343611713004;2,0660542142246774;0,5407391702208014;2,232343611713004;8,362071596423231;81,20975371562852;7,324442274239326
12:27:51.826;0;Mov;1;21627;9,85;0;2,858021933271279;2,6534501651814324;2,858021933271279;0,31582994490455335;2,6534501651814324;8,209479049043244;119,63255714590899;7,232886745811334
12:27:51.826;0;Mov;1;21628;9,85;-0,5215979849200415;2,9333902535325174;1,5145481496246223;2,9333902535325174;-0,5215979849200415;1,5145481496246223;6,500442518387402;156,80410168767358;11,20029297769097
12:27:51.827;0;Mov;1;21629;9,85;-0,5215979849200415;4,278060338908047;2,0959623535111547;4,278060338908047;-0,5215979849200415;2,0959623535111547;2,563554795983764;179,02157658619953;20,172734763634143
12:27:51.827;0;Mov;1;21630;9,85;-1,3195471530045473;1,8315744260612812;2,7706901188695943;1,8315744260612812;-1,3195471530045473;2,7706901188695943;20,844141972106083;204,71816156498917;21,485030671102024
12:27:51.827;0;Wrist;1;2384;10,17;5,5928220465712455;-7,163597808008057;3,7133947168645283;-7,163597808008057;5,5928220465712455;3,7133947168645283;-7,446516312143315;-329,05056917020175;96,10278633991516
12:27:51.827;0;Wrist;1;2385;10,17;8,881521423993652;-8,130229155858029;1,6688741721854305;-8,130229155858029;8,881521423993652;1,6688741721854305;-3,9979247413556322;-320,78005310220647;99,15463728751487
12:27:51.828;0;Wrist;1;2386;10,17;9,848152294991912;-8,855202070680868;-0,9247597144230476;-8,855202070680868;9,848152294991912;-0,9247597144230476;-7,141331217383343;-306,3753166295358;114,65804010132145
12:27:51.828;0;Wrist;1;2387;10,17;8,498697241126743;-9,836189039277322;-3,179833416623432;-9,836189039277322;8,498697241126743;-3,179833416623432;-1,6785180211798456;-284,6156193731498;133,64055299539172
12:27:51.828;0;Wrist;1;2388;10,17;5,891903439436018;-11,253834841456344;-6,69583441419721;-11,253834841456344;5,891903439436018;-6,69583441419721;24,53688161870174;-255,89770195623646;148,9608447523423
12:27:51.831;0;Wrist;1;2389;9,98;4,270882290108951;-12,466909352397229;-9,453364856410413;-12,466909352397229;4,270882290108951;-9,453364856410413;63,23435163426618;-212,9886776329844;157,53654591509752
12:27:51.831;0;Wrist;1;2390;9,98;3,514804576631977;-14,013758125553148;-9,334928243354595;-14,013758125553148;3,514804576631977;-9,334928243354595;94,45478682821131;-150,45625171666615;160,00854518265328
12:27:51.831;0;Wrist;1;2391;9,98;3,0314891411328473;-16,34180730613117;-5,154966792046876;-16,34180730613117;3,0314891411328473;-5,154966792046876;114,23078096865748;-88,19849238563188;155,70543534653768
12:27:51.831;0;Wrist;1;2392;9,98;2,950138954588458;-19,067037720877714;1,6724631965849788;-19,067037720877714;2,950138954588458;1,6724631965849788;140,38514358958707;-43,977172154911955;153,5081026642659
12:27:51.831;0;Wrist;1;2393;9,98;2,3687246314889983;-22,090151676992097;6,713779297769097;-22,090151676992097;2,3687246314889983;6,713779297769097;171,8192083498642;-22,94991912594989;154,75936155278177
12:27:51.870;0;Mov;1;21631;9,83;-1,7083529637287516;2,7036957914975432;4,793676755577257;2,7036957914975432;-1,7083529637287516;4,793676755577257;19,5623645741142;226,0811181981872;32,47169408246101
12:27:51.871;0;Mov;1;21632;9,83;-1,6425550572985015;3,3389447653126623;6,731724181340983;3,3389447653126623;-1,6425550572985015;6,731724181340983;4,303109836115604;272,25562303537095;47,57835627307962
12:27:51.871;0;Mov;1;21633;9,83;-1,4738731755653554;1,794488357188635;9,500021935178687;1,794488357188635;-1,4738731755653554;9,500021935178687;-6,225775933103427;352,2751548814356;63,90575884273812
12:27:51.871;0;Mov;1;21634;9,83;-2,0409315202795497;0,5204016235847041;5,97086102252266;0,5204016235847041;-2,0409315202795497;5,97086102252266;-0,5493331705679495;443,92223883785516;75,71642200994903
12:27:51.871;0;Mov;1;21635;9,83;-1,1269387598422194;3,390386812570574;7,290407937101352;3,390386812570574;-1,1269387598422194;7,290407937101352;16,266365550706503;498,30622272408215;87,80175176244393
12:27:51.879;0;Wrist;1;2394;9,92;0,661568029095584;-25,83465071565905;9,829011467329936;-25,83465071565905;0,661568029095584;9,829011467329936;192,3886837366863;-23,865474410229805;155,76647236548968
12:27:51.879;0;Wrist;1;2395;9,92;-2,4680197016052734;-29,838753547776726;12,415466589861751;-29,838753547776726;-2,4680197016052734;12,415466589861751;194,86068300424208;-45,86931974242378;152,25684377574999
12:27:51.879;0;Wrist;1;2396;9,92;-6,852553159428694;-32,90374080629902;11,451228560747094;-32,90374080629902;-6,852553159428694;11,451228560747094;176,58009582811977;-82,39997558519242;141,63640247810298
12:27:51.880;0;Wrist;1;2397;9,92;-14,225507942442091;-34,12638477736748;0,8625507727858821;-34,12638477736748;-14,225507942442091;0,8625507727858821;137,33329264198736;-115,51255836664937;112,18604083376567
12:27:51.880;0;Wrist;1;2398;9,92;-20,88425664540544;-33,56171987060152;-12,52433278908658;-33,56171987060152;-20,88425664540544;-12,52433278908658;93,60026856288339;-121,58574175237281;53,31583605456709
12:27:51.901;0;Mov;1;21636;9,48;-0,9714163759460738;2,938175698873867;5,566503170110172;2,938175698873867;-0,9714163759460738;5,566503170110172;42,57332071901608;541,6730246894741;90,1211584826197
12:27:51.902;0;Mov;1;21637;9,48;-0,5168126587916196;2,39265114291818;5,27938503295999;2,39265114291818;-0,5168126587916196;5,27938503295999;41,84087649159215;566,1793877987;92,01330607013153
12:27:51.902;0;Mov;1;21638;9,48;0;4,256526669362469;3,390386812570574;4,256526669362469;-0,20337534714804528;3,390386812570574;24,35377056184576;568,9260536515396;94,36323129978332
12:27:51.902;0;Mov;1;21639;9,48;-4,56517847605823;0;3,7947449034089176;-0,44024782817888425;-4,56517847605823;3,7947449034089176;11,474959562974945;550,5539109469894;96,40797143467513
12:27:51.902;0;Mov;1;21640;9,48;-5,528220561082796;-4,985088847010712;12,364024781029695;-4,985088847010712;-5,528220561082796;12,364024781029695;-42,72591326639607;456,03808709982604;110,66011535996581
12:27:51.908;0;Wrist;1;2399;9,84;-21,158213675344097;-32,18833735160375;-21,956163975951416;-32,18833735160375;-21,158213675344097;-21,956163975951416;58,19879757072665;-78,73775444807275;-20,172734763634143
12:27:51.908;0;Wrist;1;2400;9,84;-16,07622379222999;-31,033883175145725;-24,923051393169956;-31,033883175145725;-16,07622379222999;-24,923051393169956;30,88473158970916;-16,479995117038484;-91,95226905117954
12:27:51.909;0;Wrist;1;2401;9,84;-8,667378765221107;-29,955992309335613;-20,90818315683462;-29,955992309335613;-8,667378765221107;-20,90818315683462;3,936887722403638;34,15021210364086;-146,00054933317057
12:27:51.909;0;Wrist;1;2402;9,84;-1,7789361962874233;-27,912669377727592;-16,680368205816826;-27,912669377727592;-1,7789361962874233;-16,680368205816826;-11,047700430310984;67,62901699880977;-172,67372661519212
12:27:51.909;0;Wrist;1;2403;9,84;3,9287333197271646;-25,13480025635548;-14,38940378276925;-25,13480025635548;3,9287333197271646;-14,38940378276925;2,2278511917477952;80,87405011139256;-170,35431989501632
12:27:51.964;0;Mov;1;21641;9,73;-7,1312968268379775;0;31,3329645680105;-0,3194189395008698;-7,1312968268379775;31,3329645680105;-25,97125156407361;265,14481032746363;126,13299966429639
12:27:51.964;0;Mov;1;21642;9,73;-10,948771820734276;7,0008974349192785;33,33561204870754;7,0008974349192785;-10,948771820734276;33,33561204870754;25,42191839350566;165,1966917935728;101,62663655507065
12:27:51.964;0;Mov;1;21643;9,73;-9,717752426221503;9,421063875240334;25,205383846552934;9,421063875240334;-9,717752426221503;25,205383846552934;24,048585467085786;103,54930265205847;76,20471816156498
12:27:51.964;0;Mov;1;21644;9,73;-7,069087706381421;10,530057870723594;18,937833796197395;10,530057870723594;-7,069087706381421;18,937833796197395;20,599993896298106;45,74724570451979;57,28324228644673
12:27:51.964;0;Mov;1;21645;9,73;-5,388250278481399;10,3841059602649;15,417047830133976;10,3841059602649;-5,388250278481399;15,417047830133976;0,27466658528397475;12,17688528092288;45,045319986571855
12:27:51.970;0;Wrist;1;2404;9,97;8,258235229041414;-22,023157826471756;-14,426490447706534;-22,023157826471756;8,258235229041414;-14,426490447706534;36,83584093752861;87,22190008239997;-142,85714285714286
12:27:51.970;0;Wrist;1;2405;9,97;9,58256782738731;-18,85887668996246;-17,038069933164465;-18,85887668996246;9,58256782738731;-17,038069933164465;62,532425916318246;98,11700796533097;-95,18723105563524
12:27:51.970;0;Wrist;1;2406;9,97;15,664687414166693;-15,696988395336772;-13,24810975981933;-15,696988395336772;15,664687414166693;-13,24810975981933;34,69954527420881;115,3294473097934;-37,141026032288586
12:27:51.970;0;Wrist;1;2407;9,97;9,288272118289743;-15,828584208197272;14,452809801019319;-15,828584208197272;9,288272118289743;14,452809801019319;-462,29438154240546;93,56975005340739;12,81777397991882
12:27:51.970;0;Wrist;1;2408;9,97;-18,43059137241737;-12,108011680959502;12,453749198889126;-12,108011680959502;-18,43059137241737;12,453749198889126;-517,4108096560564;12,970366527298808;40,68117313150426
12:27:52.022;0;Mov;1;21646;9,95;-5,0568683812982576;9,880453276161992;13,688357379375592;9,880453276161992;-5,0568683812982576;13,688357379375592;-21,546067690054016;-8,880886257515183;37,59880367442854
12:27:52.022;0;Mov;1;21647;9,95;-5,483956324198126;9,356462866603595;13,55676156651509;9,356462866603595;-5,483956324198126;13,55676156651509;-29,267250587481307;-23,285622730185857;32,654805139317
12:27:52.022;0;Mov;1;21648;9,95;-6,3895749725333415;8,1553516113773;15,566588526566363;8,1553516113773;-6,3895749725333415;15,566588526566363;-20,32532731101413;-36,31702627643666;28,07702871791742
12:27:52.022;0;Mov;1;21649;9,95;-7,369365520187994;6,90399496826075;18,376756721701714;6,90399496826075;-7,369365520187994;18,376756721701714;1,4648884548478653;-56,06250190740684;21,51554918057802
12:27:52.022;0;Mov;1;21650;9,95;-7,910104869228187;6,5199743644520405;19,226147877437665;6,5199743644520405;-7,910104869228187;19,226147877437665;27,222510452589496;-84,62782677694021;11,261329996642964
12:27:52.052;0;Mov;1;21651;9,72;-7,740226447340312;6,767613948484756;18,288230155339214;6,767613948484756;-7,740226447340312;18,288230155339214;50,050355540635394;-114,93270668660543;-1,6174810022278512
12:27:52.052;0;Mov;1;21652;9,72;-7,1624013870662555;6,956633198034608;16,801196707052828;6,956633198034608;-7,1624013870662555;16,801196707052828;65,76738792077396;-141,544846949675;-14,801477095858639
12:27:52.052;0;Mov;1;21653;9,72;-6,314206652272103;6,907583754234444;15,418244727927489;6,907583754234444;-6,314206652272103;15,418244727927489;72,93923764763329;-163,15195165868099;-23,926511429181797
12:27:52.052;0;Mov;1;21654;9,72;-5,416962473677786;6,1802179975280005;14,975604266487625;6,1802179975280005;-5,416962473677786;14,975604266487625;69,94842371898557;-183,26364940336313;-27,03939939573351
12:27:52.052;0;Mov;1;21655;9,72;-4,5316815507980595;5,102328562273018;14,799744216742454;5,102328562273018;-4,5316815507980595;14,799744216742454;50,59968871120334;-207,3732718894009;-26,490066225165563
12:27:52.060;0;Wrist;1;2409;10,07;-30,51348155156102;-3,2779320657979065;25,612134540849024;-3,2779320657979065;-30,51348155156102;25,612134540849024;-329,7219763786737;-117,22159489730521;61,9525742362743
12:27:52.060;0;Wrist;1;2410;10,07;-3,403546250801111;10,893741225928526;-18,465285195471054;10,893741225928526;-3,403546250801111;-18,465285195471054;-33,845027008880884;-39,063692129276404;9,216589861751151
12:27:52.060;0;Wrist;1;2411;10,07;6,935099528489029;8,828882717368083;-3,9849605739005707;8,828882717368083;6,935099528489029;-3,9849605739005707;-32,19702749717704;-6,561479537339396;1,6174810022278512
12:27:52.060;0;Wrist;1;2412;10,07;-3,9107884361552783;-2,0720358420819727;5,482760380108036;-2,0720358420819727;-3,9107884361552783;5,482760380108036;-41,932432020020144;19,196142460402235;-33,53984191412091
12:27:52.060;0;Wrist;1;2413;10,07;4,758983409375286;-2,3962401673177283;-0,5550950889996032;-2,3962401673177283;4,758983409375286;-0,5550950889996032;-45,99139378032777;25,055696279793693;-30,51850947599719
12:27:52.061;0;Wrist;1;2414;9,83;-1,7047639393292031;2,113907237083041;0;2,113907237083041;-1,7047639393292031;-0,14475540010719626;-71,19968260750144;5,676442762535478;-34,363841669972835
12:27:52.061;0;Wrist;1;2415;9,83;0;-2,8412732322153387;2,1450117973113194;-2,8412732322153387;0,22012391408944212;2,1450117973113194;-76,113162633137;8,392590105899227;-34,33332316049684
12:27:52.061;0;Wrist;1;2416;9,83;-1,3793634315775019;-0,9905576208532976;1,489425336466567;-0,9905576208532976;-1,3793634315775019;1,489425336466567;-71,01657155064547;-6,317331461531419;-26,97836237678152
12:27:52.061;0;Wrist;1;2417;9,83;-2,871181371501816;0;1,3099765007477036;-0,2560136663315989;-2,871181371501816;1,3099765007477036;-56,82546464430677;-14,34369945371868;-16,144291512802514
12:27:52.061;0;Wrist;1;2418;9,83;-1,594702034440138;-0,5359538440923796;1,1173681075853756;-0,5359538440923796;-1,594702034440138;1,1173681075853756;-39,24680318613239;-16,449476607562488;-3,1128879665517135
12:27:52.111;0;Mov;1;21656;9,96;-4,616620284890286;4,151249732963042;14,002990813928648;4,151249732963042;-4,616620284890286;14,002990813928648;19,623401593066195;-233,22244941557054;-27,008880886257515
12:27:52.112;0;Mov;1;21657;9,96;-5,404999217963194;3,3066440225684377;11,714420186468093;3,3066440225684377;-5,404999217963194;11,714420186468093;-5,584887234107486;-258,4917752616962;-28,992584002197333
12:27:52.112;0;Mov;1;21658;9,96;-5,662209215826899;3,0123478366191594;8,699679746391187;3,0123478366191594;-5,662209215826899;8,699679746391187;-15,747550889614551;-280,70925016022215;-31,159398174993132
12:27:52.112;0;Mov;1;21659;9,96;-5,463619075594348;2,8520403054139836;6,188592467268899;2,8520403054139836;-5,463619075594348;6,188592467268899;-19,959105197302165;-296,12109744560075;-34,516434217352824
12:27:52.112;0;Mov;1;21660;9,96;-5,047297490615558;1,9045503812906277;5,1944458220160525;1,9045503812906277;-5,047297490615558;5,1944458220160525;-26,39851069673757;-306,3142796105838;-38,880581072420426
12:27:52.121;0;Wrist;1;2419;9,97;0;0;0,6125187045083468;-0,07536851398224585;-0,4390514966467788;0,6125187045083468;-28,565324869533374;-18,18903164769433;2,197332682271798
12:27:52.121;0;Wrist;1;2420;9,97;0;0;0,7297585985900449;-0,20816065837485123;-0,08852809377813425;0,7297585985900449;-23,499252296517838;-17,670216986602373;1,2512588885158848
12:27:52.121;0;Wrist;1;2421;9,97;0;0;0,7249733320680868;0,010766930701942408;-0,025122837373181287;0,7249733320680868;-19,257179479354228;-15,198217719046601;0,6103701895199438
12:27:52.121;0;Wrist;1;2422;9,97;0;0;0,5012604382839442;0,23208716980403302;0,2584063293958098;0,5012604382839442;-17,3955504013184;-10,406811731315043;0,793481246375927
12:27:52.121;0;Wrist;1;2423;9,97;0,7321512616542558;0;0;0,1435590685750908;0,7321512616542558;0,49168981583033233;-18,55525376140629;-4,425183874019593;0,4882961516159551
12:27:52.201;0;Mov;1;21661;9,6;-4,506558618427076;0;5,287759025849177;0,3194189395008698;-4,506558618427076;5,287759025849177;-38,209173863948486;-317,02627643665886;-42,81746879482406
12:27:52.201;0;Mov;1;21662;9,6;-4,626191175572985;-1,6425550572985015;4,830762943662831;-1,6425550572985015;-4,626191175572985;4,830762943662831;-52,156132694479204;-327,64671773430587;-45,6862086855678
12:27:52.201;0;Mov;1;21663;9,6;-5,205212656788842;-3,098483230079043;3,0865199743644522;-3,098483230079043;-5,205212656788842;3,0865199743644522;-61,098055970946376;-334,36078981902523;-47,8225043488876
12:27:52.201;0;Mov;1;21664;9,6;-5,000640888698996;-3,9718008972441785;1,303994872890408;-3,9718008972441785;-5,000640888698996;1,303994872890408;-63,41746269112217;-334,94064149906916;-47,94457838679159
12:27:52.201;0;Mov;1;21665;9,6;-5,340397255623035;-5,13702190847499;0,8792992950224311;-5,13702190847499;-5,340397255623035;0,8792992950224311;-68,81923886837367;-330,3323465681936;-45,07583849604785
12:27:52.231;0;Mov;1;21666;9,71;-7,146848868526261;-6,295065347758415;0,7165990411465804;-6,295065347758415;-7,146848868526261;0,7165990411465804;-78,3715323343608;-322,97738578447826;-44,16028321176794
12:27:52.231;0;Mov;1;21667;9,71;-7,8215768723105565;-6,540312089907529;-1,7885067293313395;-6,540312089907529;-7,8215768723105565;-1,7885067293313395;-87,58812219611194;-314,737388225959;-53,65153965880307
12:27:52.231;0;Mov;1;21668;9,71;-6,512796315652944;-6,906387810144353;-5,841658051545762;-6,906387810144353;-6,512796315652944;-5,841658051545762;-98,20856349375896;-297,37235633411666;-69,36857203894162
12:27:52.231;0;Mov;1;21669;9,71;-4,56637489700003;-7,523691900387585;-10,830335207678457;-7,523691900387585;-4,56637489700003;-10,830335207678457;-118,19818720053712;-261,146885586108;-83,40708639790033
12:27:52.231;0;Mov;1;21670;9,71;-3,8091007625812554;-8,127836313974425;-15,059347056489761;-8,127836313974425;-3,8091007625812554;-15,059347056489761;-142,49092074343088;-200,1098666341136;-94,85152745139928
12:27:52.250;0;Wrist;1;2424;9,79;0,8087161220702231;0;0,7142063780823694;-0,040675070919770656;0,8087161220702231;0,7142063780823694;-21,820734275337994;1,6479995117038484;-1,2512588885158848
12:27:52.250;0;Wrist;1;2425;9,79;0,5921811578722496;0;0,825464644306772;0,1064729773500206;0,5921811578722496;0,825464644306772;-24,750511185033723;7,5685903500473035;-2,838221381267739
12:27:52.250;0;Wrist;1;2426;9,79;0;0,5060457048059023;0,8446058892139958;0,5060457048059023;0,11125828112601856;0,8446058892139958;-26,0933256019776;13,183996093630787;-3,3875545518356884
12:27:52.250;0;Wrist;1;2427;9,79;0;0,9283486792161321;1,0862636665700247;0,9283486792161321;0,30027772439687794;1,0862636665700247;-27,008880886257515;21,820734275337994;-2,7771843623157446
12:27:52.250;0;Wrist;1;2428;9,79;0;0;1,616235823198645;0,3421491193979461;-0,20337534714804528;1,616235823198645;-25,605029450361645;33,90606402783288;-4,303109836115604
12:27:52.251;0;Wrist;1;2429;9,77;-0,7859859123699149;0,5850032282860805;1,915317335276345;0,5850032282860805;-0,7859859123699149;1,915317335276345;-20,722067934202094;44,34339426862392;-4,943998535111545
12:27:52.251;0;Wrist;1;2430;9,77;-0,9151890621662038;0,6161076693014313;3,0243110923337504;0,6161076693014313;-0,9151890621662038;3,0243110923337504;-9,918515579699088;58,076723532822655;-6,225775933103427
12:27:52.251;0;Wrist;1;2431;9,77;-0,7488998434972686;1,8387524748603779;3,258790999710074;1,8387524748603779;-0,7488998434972686;3,258790999710074;15,167699209570605;97,62871181371501;-5,920590838343455
12:27:52.251;0;Wrist;1;2432;9,77;-1,5013885921811578;2,4022217951750235;2,0253792401654103;2,4022217951750235;-1,5013885921811578;2,0253792401654103;46,81539353617969;133,03018280587176;-14,160588396862698
12:27:52.251;0;Wrist;1;2433;9,77;-1,7251015455717642;2,3603504001739557;0,7584704361476485;2,3603504001739557;-1,7251015455717642;0,7584704361476485;57,86309396649067;148,44203009125033;-13,855403302102726
12:27:52.262;0;Mov;1;21671;9,82;-3,9263407162694173;-10,05392048402356;-15,750823046052432;-10,05392048402356;-3,9263407162694173;-15,750823046052432;-156,5904721213416;-118,41181676686911;-105,19730216376232
12:27:52.262;0;Mov;1;21672;9,82;-4,597479457228309;-13,907284768211921;-9,702200384533219;-13,907284768211921;-4,597479457228309;-9,702200384533219;-162,87728507339702;-43,24472792748802;-117,58781701101718
12:27:52.262;0;Mov;1;21673;9,82;-5,019782193212683;-18,555009613330483;-1,780132498016297;-18,555009613330483;-5,019782193212683;-1,780132498016297;-182,13446455275124;10,742515335551012;-137,60795922727135
12:27:52.262;0;Mov;1;21674;9,82;-4,4527239677114165;-23,82003807184057;4,663277363658559;-23,82003807184057;-4,4527239677114165;4,663277363658559;-213,84319589831233;31,678212836085084;-163,30454420606097
12:27:52.262;0;Mov;1;21675;9,82;-2,7276223029267253;-28,510832163457138;9,289468062379834;-28,510832163457138;-2,7276223029267253;9,289468062379834;-247,7797784356212;15,717032380138553;-190,2829065828425
12:27:52.269;0;Wrist;1;2434;9,83;-0,8362315982924894;2,8233283486434524;2,446485793633839;2,8233283486434524;-0,8362315982924894;2,446485793633839;60,8233893856624;154,39313943906978;-8,48414563432722
12:27:52.269;0;Wrist;1;2435;9,83;-1,095834199613941;7,192309526352733;4,316342947935423;7,192309526352733;-1,095834199613941;4,316342947935423;83,74279000213629;188,1160924100467;-10,406811731315043
12:27:52.269;0;Wrist;1;2436;9,83;-2,1785089609973447;9,22008136997589;6,462550927762688;9,22008136997589;-2,1785089609973447;6,462550927762688;115,2073732718894;252,63222144230477;-21,97332682271798
12:27:52.269;0;Wrist;1;2437;9,83;-0,8769066319582202;2,4799829573198644;6,449391251106296;2,4799829573198644;-0,8769066319582202;6,449391251106296;150,48677022614214;342,72286141544845;-35,61510055848872
12:27:52.269;0;Wrist;1;2438;9,83;-0,7788079827837459;3,89643257698294;7,104977473525193;3,89643257698294;-0,7788079827837459;7,104977473525193;173,16202276680806;437,9406109805597;-38,48384044923246
12:27:52.298;0;Wrist;1;2439;9,72;0;6,2866908780175175;4,994659260841701;6,2866908780175175;0,3098483170472579;4,994659260841701;185,15579699087496;536,8816187017426;-43,54991302224799
12:27:52.298;0;Wrist;1;2440;9,72;-0,6639606921597949;4,196710390789514;3,2803246692556534;4,196710390789514;-0,6639606921597949;3,2803246692556534;181,3715018158513;588,6104922635578;-52,552873317667164
12:27:52.298;0;Wrist;1;2441;9,72;-0,5802179021576587;3,8270456461531417;4,086648247474593;3,8270456461531417;-0,5802179021576587;4,086648247474593;196,96646015808588;607,4709311197241;-62,04412976470229
12:27:52.298;0;Wrist;1;2442;9,72;0;5,030549027985473;8,35394127475814;5,030549027985473;-0,15552232428968168;8,35394127475814;214,45356608783226;639,0881069368572;-77,05923642689291
12:27:52.298;0;Wrist;1;2443;9,72;1,0599444324701681;6,2041445089571825;8,809741889706107;6,2041445089571825;1,0599444324701681;8,809741889706107;228,186895352031;682,1192052980133;-99,36826685384686
12:27:52.321;0;Mov;1;21676;9,96;0,9714163759460738;-30,494338816492203;8,292929052095095;-30,494338816492203;0,9714163759460738;8,292929052095095;-261,39103366191597;-29,419843134861292;-218,72615741447188
12:27:52.321;0;Mov;1;21677;9,96;9,11001922666097;-29,34945600756859;-2,2933560728019042;-29,34945600756859;9,11001922666097;-2,2933560728019042;-243,20200201422162;-74,19049653614917;-235,57237464522234
12:27:52.321;0;Mov;1;21678;9,96;19,23093356120487;-26,546464430677204;-15,004315507980591;-26,546464430677204;19,23093356120487;-15,004315507980591;-196,60023804437392;-82,43049409466842;-214,72823267311625
12:27:52.321;0;Mov;1;21679;9,96;26,52851954710532;-25,273573641163367;-22,396410641804255;-25,273573641163367;26,52851954710532;-22,396410641804255;-136,69240394299143;-43,12265388958403;-145,6343272194586
12:27:52.321;0;Mov;1;21680;9,96;25,761675237281413;-25,536765266884366;-19,253664128543964;-25,536765266884366;25,761675237281413;-19,253664128543964;-94,36323129978332;-16,602069154942473;-62,80709250160222
12:27:52.351;0;Mov;1;21681;9,81;19,82072283089694;-25,02354312265389;-15,679043511764885;-25,02354312265389;19,82072283089694;-15,679043511764885;-88,83938108462783;2,8992584002197335;4,1810357982116155
12:27:52.351;0;Mov;1;21682;9,81;12,756419377727592;-22,803161336100345;-16,95552308725242;-22,803161336100345;12,756419377727592;-16,95552308725242;-77,1507919553209;15,259254737998596;44,70961638233589
12:27:52.351;0;Mov;1;21683;9,81;8,091946546830652;-20,125785851619007;-21,432172612689595;-20,125785851619007;8,091946546830652;-21,432172612689595;-44,25183874019593;30,76265755180517;58,47346415601062
12:27:52.351;0;Mov;1;21684;9,81;7,285622730185858;-18,202093569750055;-23,032856990264595;-18,202093569750055;7,285622730185858;-23,032856990264595;-25,788140507217626;54,62813196203498;52,156132694479204
12:27:52.351;0;Mov;1;21685;9,81;7,228199293496505;-16,415980636005738;-20,7682119205298;-16,415980636005738;7,228199293496505;-20,7682119205298;-43,36680196539201;83,98693807794427;32,563249610889
12:27:52.359;0;Wrist;1;2444;9,96;5,067635216071047;-19,995385982848596;26,174407559434798;-19,995385982848596;5,067635216071047;26,174407559434798;168,49269081698048;617,6641132847071;-141,75847651600697
12:27:52.359;0;Wrist;1;2445;9,96;5,780645352031007;5,956504924924467;35,49138996551408;5,956504924924467;5,780645352031007;35,49138996551408;32,44117557298502;192,11401715140232;-116,15344706564531
12:27:52.359;0;Wrist;1;2446;9,96;3,6260629024628437;12,385558450575274;31,575817514572588;12,385558450575274;3,6260629024628437;31,575817514572588;35,401470992156746;96,28589739677115;-92,74575029755546
12:27:52.360;0;Wrist;1;2447;9,96;2,4787865363780632;9,899594103823969;21,771929456465347;9,899594103823969;2,4787865363780632;21,771929456465347;41,44413586840419;55,116428113650926;-83,52916043580431
12:27:52.360;0;Wrist;1;2448;9,96;0;11,288528664510025;13,63212988677633;11,288528664510025;0,3146336431756798;13,63212988677633;25,97125156407361;-0,3967406231879635;-82,27790154728844
12:27:52.411;0;Mov;1;21686;9,96;0;-16,65046006653035;-8,224738303781244;-16,65046006653035;-0,01674855762788686;-8,224738303781244;-49,43998535111545;110,9347819452498;11,20029297769097
12:27:52.411;0;Mov;1;21687;9,96;13,080624179815057;-25,336979659413434;0;-25,336979659413434;13,080624179815057;-0,33257852674756616;394,69588305307167;161,10721152378918;144,3830683309427
12:27:52.411;0;Mov;1;21688;9,96;-5,786626979888302;-31,661954100161747;13,561547250282295;-31,661954100161747;-5,786626979888302;13,561547250282295;655,5681020538957;7,965330973235267;157,3839533677175
12:27:52.411;0;Mov;1;21689;9,96;2,981243276390881;-11,313651120029299;11,48233264412366;-11,313651120029299;2,981243276390881;11,48233264412366;499,2522965178381;-184,484389782403;34,11969359416486
12:27:52.411;0;Mov;1;21690;9,96;31,789960173345133;34,073744163335064;11,670155949583423;34,073744163335064;31,789960173345133;11,670155949583423;185,8882412182989;-200,75075533310954;22,644734031189916
12:27:52.448;0;Wrist;1;2449;10,06;0;12,932279427472762;8,575261505478073;12,932279427472762;-0,26199529418889433;8,575261505478073;23,407696768089846;-16,449476607562488;-90,09063997314371
12:27:52.448;0;Wrist;1;2450;10,06;0;14,081948873867;7,413629757072664;14,081948873867;0,37564622347750787;7,413629757072664;16,479995117038484;-19,89806817835017;-101,16885891293069
12:27:52.448;0;Wrist;1;2451;10,06;2,1318521206549272;13,913266396069217;9,973766479995117;13,913266396069217;2,1318521206549272;9,973766479995117;10,162663655507066;-22,766808069093905;-110,72115237891781
12:27:52.448;0;Wrist;1;2452;10,06;4,682418191320536;13,2899811548204;13,93838980529191;13,2899811548204;4,682418191320536;13,93838980529191;5,981627857295449;-31,922360911893062;-112,03344828638569
12:27:52.448;0;Wrist;1;2453;10,06;7,164793752098148;13,652467612231819;15,833368938261055;13,652467612231819;7,164793752098148;15,833368938261055;-5,493331705679495;-47,456282235175635;-101,29093295083469
12:27:52.450;0;Wrist;1;2454;9,72;8,509463599047823;14,046059106723227;16,151591158787806;14,046059106723227;8,509463599047823;16,151591158787806;-29,57243568224128;-66,49983214819788;-83,6512344737083
12:27:52.450;0;Wrist;1;2455;9,72;8,842042870876186;14,044862208929716;15,918308626056703;14,044862208929716;8,842042870876186;15,918308626056703;-56,97805719168676;-87,46604815820795;-62,318796349986265
12:27:52.450;0;Wrist;1;2456;9,72;8,668575663014618;14,273360965300455;15,228028580584125;14,273360965300455;8,668575663014618;15,228028580584125;-78,3715323343608;-106,93685720389416;-40,58961760307626
12:27:52.450;0;Wrist;1;2457;9,72;7,981884403515732;14,03768463698233;14,353514015625477;14,03768463698233;7,981884403515732;14,353514015625477;-89,32767723624379;-127,47581408124027;-20,44740134891812
12:27:52.450;0;Wrist;1;2458;9,72;7,325101760155034;12,387951292458876;12,689425527207252;12,387951292458876;7,325101760155034;12,689425527207252;-90,09063997314371;-149,78484450819423;-3,7842951750236518
12:27:52.505;0;Mov;1;21691;9,98;-13,010040589617603;11,30408070619831;-6,430249946592609;11,30408070619831;-13,010040589617603;-6,430249946592609;54,353465376751;16,3274025696585;56,337168492690815
12:27:52.506;0;Mov;1;21692;9,98;-2,6319162572099977;-15,865669919431134;4,724289586321604;-15,865669919431134;-2,6319162572099977;4,724289586321604;66,49983214819788;76,90664387951293;111,81981872005372
12:27:52.506;0;Mov;1;21693;9,98;2,780260771126438;-2,8376842078157902;1,3853450594347971;-2,8376842078157902;2,780260771126438;1,3853450594347971;89,75493636890775;-11,780144657734915;100,95522934659871
12:27:52.506;0;Mov;1;21694;9,98;4,818799687948241;0;0;0,44144412990775783;4,818799687948241;0,052638326634361556;90,2737510299997;-43,27524643696402;77,91375469222083
12:27:52.506;0;Mov;1;21695;9,98;3,059004438535722;-2,246699470885342;1,343473664433729;-2,246699470885342;3,059004438535722;1,343473664433729;75,22812585833307;-46,021912289803765;52,82753990295114
12:27:52.507;0;Mov;1;21696;9,86;4,549626434369945;2,0146124053926204;1,2298227351451154;2,0146124053926204;4,549626434369945;1,2298227351451154;59,053315836054566;-49,83672597430341;27,985473189489426
12:27:52.507;0;Mov;1;21697;9,86;3,341337368770409;2,0959623535111547;1,1987182941297647;2,0959623535111547;3,341337368770409;1,1987182941297647;35,67613757744072;-31,342509231849117;5,920590838343455
12:27:52.507;0;Mov;1;21698;9,86;0,6005554487937559;0,9726127372814112;0,8541764818643758;0,9726127372814112;0,6005554487937559;0,8541764818643758;13,245033112582782;-8,514664143803216;-4,7303689687795645
12:27:52.507;0;Mov;1;21699;9,86;0;0;0,7608630992118595;0,031104465230476736;0,015552232615238368;0,7608630992118595;-0,9460737937559129;6,134220404675435;-3,5096285897396773
12:27:52.507;0;Mov;1;21700;9,86;0;-1,2908353154469436;0,7764153197195349;-1,2908353154469436;-0,08254646592083881;0,7764153197195349;-3,967406231879635;10,162663655507066;-2,533036286507767
12:27:52.538;0;Wrist;1;2459;10,08;6,71736808374279;9,998888935514389;10,626959860530413;9,998888935514389;6,71736808374279;10,626959860530413;-85,60441908017212;-174,23017059846796;6,256294442579424
12:27:52.540;0;Wrist;1;2460;10,08;6,647981391338847;7,929246173741874;7,816791665395062;7,929246173741874;6,647981391338847;7,816791665395062;-72,51197851496933;-196,7223120822779;12,573625904110843
12:27:52.540;0;Wrist;1;2461;10,08;7,362187948240608;6,391967814416944;4,956377128666036;6,391967814416944;7,362187948240608;4,956377128666036;-53,224280526139104;-211,79845576342052;21,790215765861994
12:27:52.540;0;Wrist;1;2462;10,08;8,85759491256447;4,845118564409314;4,57714173177282;4,845118564409314;8,85759491256447;4,57714173177282;-40,92532120731224;-221,07608264412366;36,04235969115268
12:27:52.540;0;Wrist;1;2463;10,08;9,584960669270913;3,828241828669088;5,072420422986541;3,828241828669088;9,584960669270913;5,072420422986541;-41,41361735892819;-229,80437635425886;56,27613147373882
12:27:52.564;0;Mov;1;21701;9,97;0;0;0,8960478768654438;-0,12202521275931195;-0,2596026609279153;0,8960478768654438;-2,380443739127781;8,606219672231209;-3,448591570787683
12:27:52.565;0;Mov;1;21702;9,97;-1,19632557145909;0,6268746232871486;0,8446058892139958;0,6268746232871486;-1,19632557145909;0,8446058892139958;1,922666096987823;13,977477340006715;-2,9297769096957307
12:27:52.565;0;Mov;1;21703;9,97;-0,5215979849200415;0;0,9020295047227394;0,04426404688906713;-0,5215979849200415;0,9020295047227394;7,72118289742729;24,445326090273753;-0,640888698995941
12:27:52.565;0;Mov;1;21704;9,97;0;-0,6161076693014313;0,7560777730834376;-0,6161076693014313;-0,473744932258446;0,7560777730834376;14,587847529526657;32,34962004455702;-1,0376293221839046
12:27:52.565;0;Mov;1;21705;9,97;0;0;0,6926725297173986;-0,3098483170472579;-0,4964751121555223;0,6926725297173986;19,684438612018187;34,69954527420881;-2,685628833887753
12:27:52.572;0;Wrist;1;2464;9,96;8,650630779442732;2,720444492553484;4,707541123691519;2,720444492553484;8,650630779442732;4,707541123691519;-43,76354258857997;-241,85918759727775;80,75197607348858
12:27:52.572;0;Wrist;1;2465;9,96;6,71736808374279;1,27049782841731;4,619013126773888;1,27049782841731;6,71736808374279;4,619013126773888;-39,643543809320356;-256,87429425946834;102,20648823511459
12:27:52.572;0;Wrist;1;2466;9,96;4,644136059144872;0;4,567571317941832;-0,20457167868015075;4,644136059144872;4,567571317941832;-28,77895443586535;-273,8731040375988;114,41389202551348
12:27:52.572;0;Wrist;1;2467;9,96;2,9561205824457533;-1,3530441974776453;4,123734435560167;-1,3530441974776453;2,9561205824457533;4,123734435560167;-16,876735740226447;-291,02450636310925;115,84826197088535
12:27:52.572;0;Wrist;1;2468;9,96;2,115103658024842;-2,310104773857845;3,7480880630664997;-2,310104773857845;2,115103658024842;3,7480880630664997;-9,460737937559129;-303,93383587145604;107,24204229865413
12:27:52.602;0;Wrist;1;2469;9,85;2,7671010944700463;-3,6739159253212073;3,7181799237800224;-3,6739159253212073;2,7671010944700463;3,7181799237800224;-9,186071352275155;-310,5563524277474;92,59315775017548
12:27:52.602;0;Wrist;1;2470;9,85;3,7086092715231787;-4,62020954771569;3,282717511139256;-4,62020954771569;3,7086092715231787;3,282717511139256;-16,815698721274455;-313,51664784691917;77,70012512588885
12:27:52.602;0;Wrist;1;2471;9,85;3,7827816476943266;-5,038923497726371;2,436915141376995;-5,038923497726371;3,7827816476943266;2,436915141376995;-23,04147465437788;-314,2796105838191;64,0888698995941
12:27:52.602;0;Wrist;1;2472;9,85;4,426404614398633;-5,638282704397717;0,8541764818643758;-5,638282704397717;4,426404614398633;0,8541764818643758;-17,181920834986418;-310,92257454145937;52,49183629871517
12:27:52.602;0;Wrist;1;2473;9,85;6,049818605609302;-6,436231574449904;-1,7621876144444106;-6,436231574449904;6,049818605609302;-1,7621876144444106;-7,049775688955352;-300,6988738670003;46,96798608355968
12:27:52.623;0;Mov;1;21706;9,96;0;0;1,2370006647312846;-0,03947874311306917;-0,18543046357615894;1,2370006647312846;20,355845820490128;35,30991546372875;-1,8921475875118259
12:27:52.623;0;Mov;1;21707;9,96;0;0;1,7143345915860468;0,3014740559289834;-0,22371287888252664;1,7143345915860468;17,242957853938414;40,31495101779229;-0,8850367748039186
12:27:52.623;0;Mov;1;21708;9,96;0;0,9092074343089084;1,9691519859920041;0,9092074343089084;-0,1770561875562685;1,9691519859920041;11,902218695638904;52,1866512039552;2,533036286507767
12:27:52.623;0;Mov;1;21709;9,96;0;1,1221534337137975;1,5073702200384533;1,1221534337137975;0,4007690664387951;1,5073702200384533;6,0121463667714465;75,07553331095309;8,056886501663259
12:27:52.623;0;Mov;1;21710;9,96;0;2,657039189580981;2,2790002136295664;2,657039189580981;0,28113650929288614;2,2790002136295664;3,6317026276436657;96,46900845362713;9,063997314371166
12:27:52.651;0;Mov;1;21711;9,96;0;3,1212135589922787;2,2024354724265267;3,1212135589922787;-0,38402051439901425;2,2024354724265267;-0,15259254737998595;125,06485183263649;13,48918118839076
12:27:52.651;0;Mov;1;21712;9,96;0;2,9190343943601795;1,6593036391415144;2,9190343943601795;0,007177953801294938;1,6593036391415144;-12,573625904110843;148,9608447523423;23,651844843897823
12:27:52.651;0;Mov;1;21713;9,96;0,527579612777337;2,6953215601825007;2,444093190176092;2,6953215601825007;0,527579612777337;2,444093190176092;-17,578661458174384;165,83758049256875;35,187841425824764
12:27:52.651;0;Mov;1;21714;9,96;0,5873958913502915;3,842597926267281;4,495791783654286;3,842597926267281;0,5873958913502915;4,495791783654286;-24,933622241889704;197,54631183812984;38,605914487136445
12:27:52.651;0;Mov;1;21715;9,96;0,6962614945104831;4,6070498710592975;7,20068351924192;4,6070498710592975;0,6962614945104831;7,20068351924192;-39,00265511032441;255,74510940885648;35,645619067964724
12:27:52.659;0;Wrist;1;2474;9,97;6,949455149235511;-7,066695341349528;-3,9048068082979825;-7,066695341349528;6,949455149235511;-3,9048068082979825;-1,2512588885158848;-282,11310159611804;47,73094882045961
12:27:52.659;0;Wrist;1;2475;9,97;7,262892639698477;-7,7426192892239145;-5,013800565355388;-7,7426192892239145;7,262892639698477;-5,013800565355388;6,836146122623371;-253,5172582171087;53,895687734611045
12:27:52.661;0;Wrist;1;2476;9,97;7,033197939237648;-8,432899334696494;-4,647724845118565;-8,432899334696494;7,033197939237648;-4,647724845118565;23,987548448133793;-219,7637867366558;63,661610766930146
12:27:52.661;0;Wrist;1;2477;9,97;6,6778895306253245;-9,797906430249947;-2,2455030499435407;-9,797906430249947;6,6778895306253245;-2,2455030499435407;56,855983153782766;-188,26868495742667;73,82427442243721
12:27:52.661;0;Wrist;1;2478;9,97;6,851356738486892;-11,884298608355968;0;-11,884298608355968;6,851356738486892;0,33257852674756616;106,96737571337016;-163,94543290505692;87,40501113925596
12:27:52.711;0;Mov;1;21716;9,84;0,9367229701376385;1,709549265457625;7,058320871608631;1,709549265457625;0,9367229701376385;7,058320871608631;-58,04620502334666;347,0259712515641;30,33539841914121
12:27:52.711;0;Mov;1;21717;9,84;0;1,135312991157262;7,173168221839045;1,135312991157262;-0,0705832102062479;7,173168221839045;-73,06131168553728;442,3352763451033;22,339548936429946
12:27:52.711;0;Mov;1;21718;9,84;-0,708224750225074;2,6103823492385634;8,150565927610096;2,6103823492385634;-0,708224750225074;8,150565927610096;-67,75109103671377;522,232734153264;18,341624195074314
12:27:52.711;0;Mov;1;21719;9,84;-0,769237330526902;2,4428967692342907;6,490066225165563;2,4428967692342907;-0,769237330526902;6,490066225165563;-31,800286873989073;576,097903378399;13,672292245246743
12:27:52.711;0;Mov;1;21720;9,84;1,27049782841731;1,7585985900448622;5,894296281319621;1,7585985900448622;1,27049782841731;5,894296281319621;3,7232581560716573;589,1598254341258;9,918515579699088
12:27:52.736;0;Wrist;1;2479;10,03;7,119333571123386;-14,39060068056276;0;-14,39060068056276;7,119333571123386;0,28352917235709707;156,86513870662557;-146,7024750511185;105,92974639118626
12:27:52.736;0;Wrist;1;2480;10,03;6,461354506820887;-18,040589617603075;-1,228626433416242;-18,040589617603075;6,461354506820887;-1,228626433416242;191,5341654713584;-127,1401104770043;124,9427777947325
12:27:52.736;0;Wrist;1;2481;10,03;3,7086092715231787;-21,945396664326914;-2,06366161076693;-21,945396664326914;3,7086092715231787;-2,06366161076693;204,68764305551318;-105,28885769219032;138,98129215369121
12:27:52.736;0;Wrist;1;2482;10,03;0;-25,798760948515273;-1,2226448055589465;-25,798760948515273;-0,4378551651146733;-1,2226448055589465;199,77416302987763;-89,93804742576373;144,6882534257027
12:27:52.736;0;Wrist;1;2483;10,03;-5,359538560136723;-29,32911732840968;0;-29,32911732840968;-5,359538560136723;-0,20217903051755579;180,45594653157139;-89,99908444471572;136,50929288613546
12:27:52.748;0;Wrist;1;2484;9,6;-12,689425527207252;-31,756462294381542;-4,17158745841853;-31,756462294381542;-12,689425527207252;-4,17158745841853;151,61595507675406;-100,46693319498276;112,09448530533768
12:27:52.748;0;Wrist;1;2485;9,6;-20,751462981048007;-32,66806161687063;-11,087545205542161;-32,66806161687063;-20,751462981048007;-11,087545205542161;121,18900112918485;-101,53508102664266;61,79998168889431
12:27:52.748;0;Wrist;1;2486;9,6;-22,770861308633688;-33,61076693014313;-16,06665242469558;-33,61076693014313;-22,770861308633688;-16,06665242469558;98,30011902218696;-72,32886745811335;-13,000885036774804
12:27:52.748;0;Wrist;1;2487;9,6;-18,093228324228644;-35,04755546739097;-18,203289513840144;-35,04755546739097;-18,093228324228644;-18,203289513840144;84,47523422956023;-33,7229529709769;-91,95226905117954
12:27:52.748;0;Wrist;1;2488;9,6;-10,300363170262765;-34,94347590563677;-19,95351458784753;-34,94347590563677;-10,300363170262765;-19,95351458784753;89,63286233100375;-11,20029297769097;-146,4583269753105
12:27:52.801;0;Mov;1;21721;10,08;0,5215979849200415;1,4690878494369335;2,7886350024414805;1,4690878494369335;0,5215979849200415;2,7886350024414805;52,24768822290719;566,8507950071719;1,7700735496078372
12:27:52.801;0;Mov;1;21722;10,08;0,6268746232871486;-5,430121673482467;-3,005169787820063;-5,430121673482467;0,6268746232871486;-3,005169787820063;67,04916531876583;520,7983642078921;7,660145878475295
12:27:52.801;0;Mov;1;21723;10,08;9,982140949736015;-15,326127468184454;5,79500097277749;-15,326127468184454;9,982140949736015;5,79500097277749;-40,58961760307626;403,3936582537309;89,63286233100375
12:27:52.801;0;Mov;1;21724;10,08;3,4884854617450483;0;27,11113124485;-0,2273018585772271;3,4884854617450483;27,11113124485;-54,353465376751;204,93179113132115;173,03994872890408
12:27:52.801;0;Mov;1;21725;10,08;-4,51134382534257;2,0959623535111547;25,297500152592548;2,0959623535111547;-4,51134382534257;25,297500152592548;-56,36768700216681;152,226325266274;172,9789117099521
12:27:52.802;0;Mov;1;21726;9,59;-9,440205656605732;3,5016448999755854;18,467678991058076;3,5016448999755854;-9,440205656605732;18,467678991058076;-53,04116946928312;99,39878536332286;159,61180455946533
12:27:52.802;0;Mov;1;21727;9,59;-11,213159390545366;6,188592467268899;14,352318071535386;6,188592467268899;-11,213159390545366;14,352318071535386;-29,267250587481307;65,58427686391796;137,54692220831936
12:27:52.803;0;Mov;1;21728;9,59;-10,965520760216071;7,6636617061372725;12,77675710318308;7,6636617061372725;-10,965520760216071;12,77675710318308;-4,943998535111545;55,05539109469893;102,54219183935056
12:27:52.803;0;Mov;1;21729;9,59;-10,120914334543901;9,031062120426038;12,660713332010864;9,031062120426038;-10,120914334543901;12,660713332010864;16,08325449385052;56,64235358745079;73,9158299508652
12:27:52.803;0;Mov;1;21730;9,59;-9,138731421857356;9,539500488296152;13,965905102694784;9,539500488296152;-9,138731421857356;13,965905102694784;37,018951994384594;59,7552415540025;55,90990936002686
12:27:52.808;0;Wrist;1;2489;9,83;-2,153386028626362;-33,475581377605515;-23,76022179326762;-33,475581377605515;-2,153386028626362;-23,76022179326762;98,39167455061495;13,672292245246743;-164,1895809808649
12:27:52.808;0;Wrist;1;2490;9,83;0;-31,47652363658559;-26,091860713522752;-31,47652363658559;-0,38043154960592973;-26,091860713522752;98,08648945585497;39,0942106387524;-153,41654713583787
12:27:52.809;0;Wrist;1;2491;9,83;-1,777739775345622;-28,954668568987092;-25,021149327066865;-28,954668568987092;-1,777739775345622;-25,021149327066865;109,16470839564195;66,43879512924589;-133,57951597643972
12:27:52.809;0;Wrist;1;2492;9,83;20,607903912472914;-23,528136158330028;-2,8807520237586597;-23,528136158330028;20,607903912472914;-2,8807520237586597;-49,43998535111545;123,11166722617267;-101,99285866878262
12:27:52.809;0;Wrist;1;2493;9,83;7,8251656582842495;-20,97517700735496;30,145012512588885;-20,97517700735496;7,8251656582842495;30,145012512588885;-698,8128299813837;137,60795922727135;-41,84087649159215
12:27:52.861;0;Mov;1;21731;9,81;-8,454433004242073;9,092074343089083;16,10015030365917;9,092074343089083;-8,454433004242073;16,10015030365917;49,745170445875424;58,656575212866606;44,190801721243936
12:27:52.862;0;Mov;1;21732;9,81;-7,304764034699545;7,743815710165715;19,349370174260688;7,743815710165715;-7,304764034699545;19,349370174260688;49,56205938901944;54,292428357799004;34,882656331064794
12:27:52.862;0;Mov;1;21733;9,81;-6,09169000061037;7,756975386822107;21,423799096652118;7,756975386822107;-6,09169000061037;21,423799096652118;38,23969237342448;38,54487746818445;27,741325113681448
12:27:52.862;0;Mov;1;21734;9,81;-5,876351397747734;8,23191682943205;22,470583971678824;8,23191682943205;-5,876351397747734;22,470583971678824;26,917325357829522;17,822809533982362;25,45243690298166
12:27:52.862;0;Mov;1;21735;9,81;-6,3656484611041595;8,441273804437392;23,05319376201666;8,441273804437392;-6,3656484611041595;23,05319376201666;27,61925107577746;-4,608294930875576;28,2601397747734
12:27:52.925;0;Mov;1;21736;9,85;-6,700619621112705;9,092074343089083;23,2577650532548;9,092074343089083;-6,700619621112705;23,2577650532548;38,666951506088445;-31,586657307657095;32,227546006653036
12:27:52.925;0;Mov;1;21737;9,85;-6,3417219496749775;9,71416364024781;22,3581289864803;9,71416364024781;-6,3417219496749775;22,3581289864803;46,84591204565569;-58,41242713705863;35,06576738792077
12:27:52.925;0;Mov;1;21738;9,85;-6,088100737784966;10,100576609088412;20,95244644001587;10,100576609088412;-6,088100737784966;20,95244644001587;42,63435773796808;-84,32264168218025;35,584582049012724
12:27:52.925;0;Mov;1;21739;9,85;-6,237641434217353;9,716556482131413;19,717839213232825;9,716556482131413;-6,237641434217353;19,717839213232825;32,16650898770104;-110,69063386944181;35,09628589739677
12:27:52.925;0;Mov;1;21740;9,85;-6,293868926816614;8,960478530228583;18,45930356761376;8,960478530228583;-6,293868926816614;18,45930356761376;23,651844843897823;-141,209143345439;35,24887844477676
12:27:52.929;0;Wrist;1;2494;10,2;-16,747362056337167;-22,21696180608539;27,190088351084935;-22,21696180608539;-16,747362056337167;27,190088351084935;-598,040711691641;-5,523850215155492;23,59080782494583
12:27:52.929;0;Wrist;1;2495;10,2;-30,454861217078157;13,800812364574114;3,336552161854915;13,800812364574114;-30,454861217078157;3,336552161854915;-279,4579912717063;-117,98455763420515;3,021332438123722
12:27:52.929;0;Wrist;1;2496;10,2;7,169579435865352;21,121127964110233;-21,475239951780754;21,121127964110233;7,169579435865352;-21,475239951780754;-53,895687734611045;26,52058473464156;-23,25510422070986
12:27:52.929;0;Wrist;1;2497;10,2;1,2298227351451154;-2,185686771370586;8,84563165684988;-2,185686771370586;1,2298227351451154;8,84563165684988;-83,04086428418836;45,564134647663806;-69,15494247260963
12:27:52.930;0;Wrist;1;2498;10,2;6,1802179975280005;-7,219824823755608;0,7788079827837459;-7,219824823755608;6,1802179975280005;0,7788079827837459;-129,64262825403608;54,13983581041902;-91,2198248237556
12:27:52.952;0;Mov;1;21741;9,95;-6,3118138103885;7,853877376628925;16,71506202887051;7,853877376628925;-6,3118138103885;16,71506202887051;16,937772759178443;-174,47431867427593;35,187841425824764
12:27:52.952;0;Mov;1;21742;9,95;-6,226874599444563;6,292672505874813;14,603546441541795;6,292672505874813;-6,226874599444563;14,603546441541795;7,93481246375927;-209,14334543900875;33,17361980040895
12:27:52.952;0;Mov;1;21743;9,95;-6,279512829218421;5,034138290810877;12,032642406994842;5,034138290810877;-6,279512829218421;12,032642406994842;-5,249183629871517;-242,2559282204657;28,107547227393415
12:27:52.952;0;Mov;1;21744;9,95;-6,461354506820887;3,719376344721824;9,985729735709707;3,719376344721824;-6,461354506820887;9,985729735709707;-19,074068422498247;-271,889400921659;20,87466048158208
12:27:52.952;0;Mov;1;21745;9,95;-6,521170785393841;1,728690450758385;9,412689405499435;1,728690450758385;-6,521170785393841;9,412689405499435;-33,26517532883694;-297,7385784478286;11,871700186162908
12:27:52.959;0;Wrist;1;2499;10,08;-11,933347575304422;-2,495535237434004;3,335355740913114;-2,495535237434004;-11,933347575304422;3,335355740913114;-131,4127018036439;-7,293923764763329;-77,91375469222083
12:27:52.959;0;Wrist;1;2500;10,08;-4,538859122745445;0;1,4738731755653554;0,43306986878948334;-4,538859122745445;1,4738731755653554;-70,74190496536148;-14,55732902005066;-21,668141727958005
