Frecuencia (Hz);100
time;timespan;canal;id;sample;gap;accX;accY;accZ;rawAccX;rawAccY;rawAccZ;rawGirX;rawGirY;rawGirZ
12:26:46.902;0;Mov;1;19331;12,24;0;0;0;0,0023926511894857296;-0,0011963255947428648;0,00598162785729545;0,24414807580797754;0,061037018951994385;0,030518509475997192
12:26:46.902;0;Mov;1;19332;12,24;0;0;0;-0,0011963255947428648;-0,007177953801294938;0,009570604757942918;0,3051850947599719;0,030518509475997192;0
12:26:46.903;0;Mov;1;19333;12,24;0;0;0;-0,00598162785729545;-0,0011963255947428648;-0,00598162785729545;0,15259254737998595;0,030518509475997192;0,030518509475997192
12:26:46.903;0;Mov;1;19334;12,24;0;0;0;-0,0011963255947428648;0,0023926511894857296;-0,003588976900647469;0;0;0,030518509475997192
12:26:46.903;0;Mov;1;19335;12,24;0;0;0;0,003588976900647469;-0,004785302378971459;0,00598162785729545;0,12207403790398877;-0,061037018951994385;0,030518509475997192
12:26:46.904;0;Mov;1;19336;11,08;0;0;0;0,007177953801294938;-0,01674855762788686;-0,0011963255947428648;0,18311105685598317;-0,061037018951994385;0,12207403790398877
12:26:46.905;0;Mov;1;19337;11,08;0;0;0;0,00837427881394343;0,007177953801294938;-0,0011963255947428648;0,18311105685598317;0;0
12:26:46.905;0;Mov;1;19338;11,08;0;0;0;-0,00837427881394343;-0,009570604757942918;0,010766930701942408;0,061037018951994385;0,030518509475997192;0
12:26:46.905;0;Mov;1;19339;11,08;0;0;0;-0,0023926511894857296;-0,00837427881394343;0,019141209515885837;0,030518509475997192;0;-0,030518509475997192
12:26:46.905;0;Mov;1;19340;11,08;0;0;0;0;0,0119632557145909;-0,00837427881394343;0,09155552842799158;-0,09155552842799158;0
12:26:46.907;0;Wrist;1;99;10,33;0;0;0;0,0023926511894857296;-0,0119632557145909;0;0,09155552842799158;-0,030518509475997192;-0,12207403790398877
12:26:46.907;0;Wrist;1;100;10,33;0;0;0;0,019141209515885837;-0,007177953801294938;-0,009570604757942918;0,061037018951994385;-0,061037018951994385;0
12:26:46.907;0;Wrist;1;101;10,33;0;0;0;0,028711815205179753;-0,00598162785729545;-0,020337535459885328;0,12207403790398877;0;0
12:26:46.907;0;Wrist;1;102;10,33;0;0;0;0,00837427881394343;-0,004785302378971459;-0,028711815205179753;0,09155552842799158;0;0
12:26:46.907;0;Wrist;1;103;10,33;0;0;0;0,0023926511894857296;-0,00837427881394343;-0,01794488357188635;0,21362956633198035;-0,09155552842799158;-0,12207403790398877
12:26:46.908;0;Wrist;1;104;9,41;0;0;0;0,003588976900647469;0,00598162785729545;-0,009570604757942918;0,09155552842799158;-0,061037018951994385;-0,15259254737998595
12:26:46.908;0;Wrist;1;105;9,41;0;0;0;0,014355907602589877;0,003588976900647469;-0,019141209515885837;0,061037018951994385;0,09155552842799158;-0,030518509475997192
12:26:46.908;0;Wrist;1;106;9,41;0;0;0;0,009570604757942918;-0,003588976900647469;-0,02990813928647725;0,12207403790398877;0,061037018951994385;-0,030518509475997192
12:26:46.908;0;Wrist;1;107;9,41;0;0;0;-0,004785302378971459;-0,015552232615238368;-0,00837427881394343;0,18311105685598317;0,09155552842799158;-0,15259254737998595
12:26:46.908;0;Wrist;1;108;9,41;0;0;0;0;-0,0023926511894857296;0;0,061037018951994385;0,12207403790398877;-0,12207403790398877
12:26:46.909;0;Mov;1;19341;10,14;0;0;0;-0,013159581658590389;0;0,00837427881394343;0,061037018951994385;0,030518509475997192;0
12:26:46.909;0;Mov;1;19342;10,14;0;0;0;-0,0119632557145909;-0,0119632557145909;0,01674855762788686;0,12207403790398877;0;0,030518509475997192
12:26:46.909;0;Mov;1;19343;10,14;0;0;0;0,0011963255947428648;0;0,0023926511894857296;0,12207403790398877;-0,09155552842799158;0
12:26:46.909;0;Mov;1;19344;10,14;0;0;0;0,004785302378971459;0;0,0023926511894857296;0,09155552842799158;-0,09155552842799158;-0,030518509475997192
12:26:46.910;0;Mov;1;19345;10,14;0;0;0;0,010766930701942408;-0,0011963255947428648;0,010766930701942408;0,12207403790398877;-0,15259254737998595;-0,030518509475997192
12:26:46.910;0;Wrist;1;109;8,68;0;0;0;0,007177953801294938;-0,014355907602589877;0,00598162785729545;0,09155552842799158;0,061037018951994385;0,061037018951994385
12:26:46.910;0;Wrist;1;110;8,68;0;0;0;0,004785302378971459;-0,0011963255947428648;0,004785302378971459;0,15259254737998595;0,061037018951994385;0
12:26:46.910;0;Wrist;1;111;8,68;0;0;0;0,007177953801294938;0,003588976900647469;-0,014355907602589877;0,12207403790398877;0,030518509475997192;-0,09155552842799158
12:26:46.911;0;Wrist;1;112;8,68;0;0;0;0,004785302378971459;0;-0,015552232615238368;0,030518509475997192;-0,09155552842799158;0
12:26:46.911;0;Wrist;1;113;8,68;0;0;0;0,00598162785729545;0,003588976900647469;-0,007177953801294938;0,15259254737998595;-0,09155552842799158;-0,061037018951994385
12:26:46.950;0;Mov;1;19346;9,98;0;0;0;-0,0119632557145909;-0,014355907602589877;0;0,12207403790398877;-0,12207403790398877;0,030518509475997192
12:26:46.951;0;Mov;1;19347;9,98;0;0;0;0;0;0;0,12207403790398877;-0,061037018951994385;-0,030518509475997192
12:26:46.951;0;Mov;1;19348;9,98;0;0;0;0,010766930701942408;-0,003588976900647469;0,014355907602589877;0,09155552842799158;-0,061037018951994385;0
12:26:46.951;0;Mov;1;19349;9,98;0;0;0;0,00598162785729545;-0,010766930701942408;0,0023926511894857296;0,09155552842799158;-0,09155552842799158;0
12:26:46.951;0;Mov;1;19350;9,98;0;0;0;-0,007177953801294938;0,010766930701942408;-0,003588976900647469;0,09155552842799158;-0,061037018951994385;0,030518509475997192
12:26:46.958;0;Wrist;1;114;8,73;0;0;0;-0,007177953801294938;-0,0011963255947428648;-0,021533861403884816;-0,061037018951994385;0;-0,12207403790398877
12:26:46.958;0;Wrist;1;115;8,73;0;0;0;-0,00837427881394343;-0,003588976900647469;-0,01794488357188635;0,061037018951994385;0;-0,061037018951994385
12:26:46.958;0;Wrist;1;116;8,73;0;0;0;0,015552232615238368;0;-0,013159581658590389;0,061037018951994385;0,030518509475997192;-0,061037018951994385
12:26:46.958;0;Wrist;1;117;8,73;0;0;0;0,007177953801294938;-0,004785302378971459;-0,014355907602589877;0,15259254737998595;0,030518509475997192;-0,061037018951994385
12:26:46.958;0;Wrist;1;118;8,73;0;0;0;0,003588976900647469;-0,019141209515885837;-0,025122837373181287;0,030518509475997192;0,09155552842799158;-0,09155552842799158
12:26:46.980;0;Mov;1;19351;9,67;0;0;0;-0,0023926511894857296;-0,0023926511894857296;0,020337535459885328;0,15259254737998595;-0,030518509475997192;0,09155552842799158
12:26:46.980;0;Mov;1;19352;9,67;0;0;0;-0,00837427881394343;-0,010766930701942408;0,00598162785729545;0,15259254737998595;-0,09155552842799158;0
12:26:46.980;0;Mov;1;19353;9,67;0;0;0;-0,009570604757942918;-0,003588976900647469;0,0011963255947428648;0,030518509475997192;0;0
12:26:46.981;0;Mov;1;19354;9,67;0;0;0;0,010766930701942408;0,0023926511894857296;0,00837427881394343;0,09155552842799158;0;0,030518509475997192
12:26:46.981;0;Mov;1;19355;9,67;0;0;0;0,003588976900647469;0,0011963255947428648;0,007177953801294938;0,09155552842799158;0,030518509475997192;0,061037018951994385
12:26:47.018;0;Wrist;1;119;8,97;0;0;0;0,00598162785729545;-0,00598162785729545;-0,0119632557145909;0,061037018951994385;0,061037018951994385;-0,030518509475997192
12:26:47.018;0;Wrist;1;120;8,97;0;0;0;0,0119632557145909;-0,0011963255947428648;-0,015552232615238368;-0,061037018951994385;0,030518509475997192;0,030518509475997192
12:26:47.018;0;Wrist;1;121;8,97;0;0;0;-0,0023926511894857296;-0,0023926511894857296;0,0011963255947428648;0,030518509475997192;0,18311105685598317;-0,15259254737998595
12:26:47.018;0;Wrist;1;122;8,97;0;0;0;0;-0,010766930701942408;-0,020337535459885328;0;0,12207403790398877;-0,12207403790398877
12:26:47.018;0;Wrist;1;123;8,97;0;0;0;0,01794488357188635;-0,007177953801294938;-0,013159581658590389;0;0,09155552842799158;-0,12207403790398877
12:26:47.040;0;Mov;1;19356;9,83;0;0;0;-0,00598162785729545;0,0023926511894857296;-0,013159581658590389;0;0,18311105685598317;0,030518509475997192
12:26:47.040;0;Mov;1;19357;9,83;0;0;0;0,003588976900647469;0,004785302378971459;0,010766930701942408;0,030518509475997192;0,21362956633198035;-0,030518509475997192
12:26:47.040;0;Mov;1;19358;9,83;0;0;0;-0,004785302378971459;-0,007177953801294938;0,0023926511894857296;0;0,12207403790398877;0
12:26:47.040;0;Mov;1;19359;9,83;0;0;0;-0,0011963255947428648;-0,014355907602589877;-0,0011963255947428648;-0,09155552842799158;0,27466658528397475;0,030518509475997192
12:26:47.040;0;Mov;1;19360;9,83;0;0;0;-0,004785302378971459;-0,007177953801294938;0;0;0,030518509475997192;0,061037018951994385
12:26:47.048;0;Wrist;1;124;8,76;0;0;0;0,00837427881394343;-0,0011963255947428648;-0,025122837373181287;0;0,12207403790398877;-0,09155552842799158
12:26:47.048;0;Wrist;1;125;8,76;0;0;0;0,013159581658590389;-0,015552232615238368;-0,020337535459885328;-0,09155552842799158;0,18311105685598317;-0,15259254737998595
12:26:47.048;0;Wrist;1;126;8,76;0;0;0;0,01674855762788686;-0,0023926511894857296;-0,01794488357188635;0;0,18311105685598317;-0,09155552842799158
12:26:47.048;0;Wrist;1;127;8,76;0;0;0;0,004785302378971459;-0,007177953801294938;-0,019141209515885837;0;0,15259254737998595;-0,18311105685598317
12:26:47.048;0;Wrist;1;128;8,76;0;0;0;-0,0011963255947428648;-0,004785302378971459;-0,02273018548518231;-0,061037018951994385;0,09155552842799158;-0,09155552842799158
12:26:47.099;0;Mov;1;19361;9,97;0;0;0;0,0023926511894857296;0,0023926511894857296;-0,004785302378971459;0;0,12207403790398877;0
12:26:47.100;0;Mov;1;19362;9,97;0;0;0;0,00837427881394343;-0,0011963255947428648;0,003588976900647469;-0,09155552842799158;0,061037018951994385;0
12:26:47.100;0;Mov;1;19363;9,97;0;0;0;0,00598162785729545;0,0023926511894857296;0,004785302378971459;0;0,15259254737998595;0
12:26:47.100;0;Mov;1;19364;9,97;0;0;0;0;0;0,01674855762788686;0;0,21362956633198035;0
12:26:47.100;0;Mov;1;19365;9,97;0;0;0;-0,0023926511894857296;-0,003588976900647469;0,013159581658590389;0;0,061037018951994385;0
12:26:47.108;0;Wrist;1;129;8,96;0;0;0;0,013159581658590389;-0,019141209515885837;-0,025122837373181287;-0,21362956633198035;0,15259254737998595;-0,18311105685598317
12:26:47.108;0;Wrist;1;130;8,96;0;0;0;0,007177953801294938;-0,0023926511894857296;-0,010766930701942408;-0,09155552842799158;0,061037018951994385;-0,21362956633198035
12:26:47.108;0;Wrist;1;131;8,96;0;0;0;0,00837427881394343;0;-0,021533861403884816;-0,15259254737998595;0,18311105685598317;-0,061037018951994385
12:26:47.108;0;Wrist;1;132;8,96;0;0;0;-0,013159581658590389;0,009570604757942918;-0,013159581658590389;-0,09155552842799158;0,12207403790398877;-0,18311105685598317
12:26:47.108;0;Wrist;1;133;8,96;0;0;0;0,003588976900647469;-0,00598162785729545;-0,020337535459885328;-0,12207403790398877;0,15259254737998595;-0,18311105685598317
12:26:47.130;0;Mov;1;19366;9,74;0;0;0;0,004785302378971459;0;-0,004785302378971459;0;0,061037018951994385;0,09155552842799158
12:26:47.131;0;Mov;1;19367;9,74;0;0;0;0,0023926511894857296;-0,0119632557145909;-0,003588976900647469;-0,030518509475997192;0,24414807580797754;0,061037018951994385
12:26:47.131;0;Mov;1;19368;9,74;0;0;0;-0,00598162785729545;-0,00598162785729545;0;-0,030518509475997192;0,15259254737998595;0
12:26:47.131;0;Mov;1;19369;9,74;0;0;0;-0,014355907602589877;-0,0119632557145909;0,014355907602589877;-0,12207403790398877;0,18311105685598317;0
12:26:47.131;0;Mov;1;19370;9,74;0;0;0;-0,004785302378971459;0,0023926511894857296;-0,004785302378971459;-0,030518509475997192;0,27466658528397475;0,12207403790398877
12:26:47.168;0;Wrist;1;134;9,16;0;0;0;0;0,004785302378971459;-0,00837427881394343;0;0,15259254737998595;-0,09155552842799158
12:26:47.169;0;Wrist;1;135;9,16;0;0;0;0,0023926511894857296;0,0023926511894857296;0;0,030518509475997192;0,12207403790398877;-0,12207403790398877
12:26:47.169;0;Wrist;1;136;9,16;0;0;0;0,009570604757942918;0,0011963255947428648;-0,009570604757942918;0;0,18311105685598317;-0,27466658528397475
12:26:47.169;0;Wrist;1;137;9,16;0;0;0;0,014355907602589877;0;-0,014355907602589877;0,061037018951994385;0,12207403790398877;-0,061037018951994385
12:26:47.169;0;Wrist;1;138;9,16;0;0;0;0,00598162785729545;-0,007177953801294938;-0,009570604757942918;0,030518509475997192;0,12207403790398877;0,030518509475997192
12:26:47.197;0;Wrist;1;139;8,96;0;0;0;0,01794488357188635;0;-0,021533861403884816;0,030518509475997192;0;-0,030518509475997192
12:26:47.197;0;Wrist;1;140;8,96;0;0;0;0,00837427881394343;-0,003588976900647469;-0,010766930701942408;0,030518509475997192;0,18311105685598317;-0,21362956633198035
12:26:47.197;0;Wrist;1;141;8,96;0;0;0;0,010766930701942408;-0,009570604757942918;-0,0119632557145909;0;0,24414807580797754;-0,15259254737998595
12:26:47.197;0;Wrist;1;142;8,96;0;0;0;-0,004785302378971459;-0,021533861403884816;0,0023926511894857296;0,061037018951994385;0,09155552842799158;-0,15259254737998595
12:26:47.197;0;Wrist;1;143;8,96;0;0;0;-0,003588976900647469;0,00837427881394343;-0,020337535459885328;0,15259254737998595;0,15259254737998595;-0,21362956633198035
12:26:47.251;0;Mov;1;19371;10,58;0;0;0;0,007177953801294938;0,0011963255947428648;0;0,061037018951994385;0,3051850947599719;0,030518509475997192
12:26:47.251;0;Mov;1;19372;10,58;0;0;0;-0,00837427881394343;-0,010766930701942408;0,0119632557145909;0;0,3051850947599719;-0,030518509475997192
12:26:47.251;0;Mov;1;19373;10,58;0;0;0;-0,013159581658590389;-0,00598162785729545;-0,003588976900647469;0;0,15259254737998595;0,030518509475997192
12:26:47.251;0;Mov;1;19374;10,58;0;0;0;-0,0119632557145909;-0,010766930701942408;0,019141209515885837;-0,061037018951994385;0,18311105685598317;0,061037018951994385
12:26:47.251;0;Mov;1;19375;10,58;0;0;0;0,00837427881394343;-0,0023926511894857296;0,004785302378971459;-0,12207403790398877;0,21362956633198035;0,061037018951994385
12:26:47.253;0;Mov;1;19376;10,01;0;0;0;0,004785302378971459;0,014355907602589877;0;-0,061037018951994385;0,21362956633198035;0,061037018951994385
12:26:47.253;0;Mov;1;19377;10,01;0;0;0;-0,00837427881394343;-0,014355907602589877;0,0119632557145909;-0,09155552842799158;0,18311105685598317;0,030518509475997192
12:26:47.253;0;Mov;1;19378;10,01;0;0;0;-0,009570604757942918;-0,009570604757942918;-0,0011963255947428648;-0,09155552842799158;0,21362956633198035;-0,030518509475997192
12:26:47.253;0;Mov;1;19379;10,01;0;0;0;-0,00837427881394343;0,010766930701942408;-0,003588976900647469;-0,15259254737998595;0,24414807580797754;0
12:26:47.253;0;Mov;1;19380;10,01;0;0;0;-0,014355907602589877;-0,0023926511894857296;-0,0023926511894857296;0;0,09155552842799158;0,061037018951994385
12:26:47.279;0;Mov;1;19381;9,76;0;0;0;-0,0023926511894857296;-0,0011963255947428648;0,007177953801294938;-0,12207403790398877;0,12207403790398877;0,030518509475997192
12:26:47.279;0;Mov;1;19382;9,76;0;0;0;0,0023926511894857296;0,0023926511894857296;0,0023926511894857296;-0,12207403790398877;0,3357036042359691;0
12:26:47.279;0;Mov;1;19383;9,76;0;0;0;-0,01794488357188635;0;0,0011963255947428648;0,030518509475997192;0,21362956633198035;0
12:26:47.279;0;Mov;1;19384;9,76;0;0;0;0;0,015552232615238368;0,028711815205179753;-0,12207403790398877;0,12207403790398877;-0,061037018951994385
12:26:47.280;0;Mov;1;19385;9,76;0;0;0;-0,0023926511894857296;-0,009570604757942918;0,013159581658590389;-0,24414807580797754;0,21362956633198035;-0,030518509475997192
12:26:47.301;0;Wrist;1;144;9,59;0;0;0;0,009570604757942918;-0,007177953801294938;-0,014355907602589877;0;0,27466658528397475;-0,18311105685598317
12:26:47.302;0;Wrist;1;145;9,59;0;0;0;0,0119632557145909;0,0119632557145909;-0,007177953801294938;0;0,3051850947599719;-0,21362956633198035
12:26:47.302;0;Wrist;1;146;9,59;0;0;0;-0,015552232615238368;-0,009570604757942918;-0,0023926511894857296;0,061037018951994385;0,27466658528397475;-0,18311105685598317
12:26:47.302;0;Wrist;1;147;9,59;0;0;0;-0,01794488357188635;-0,01794488357188635;-0,00598162785729545;0,061037018951994385;0,21362956633198035;-0,09155552842799158
12:26:47.302;0;Wrist;1;148;9,59;0;0;0;0,010766930701942408;0,020337535459885328;-0,01674855762788686;0,3051850947599719;0,21362956633198035;0,09155552842799158
12:26:47.318;0;Wrist;1;149;9,27;0;0;0;-0,0119632557145909;-0,007177953801294938;-0,009570604757942918;0;0,24414807580797754;-0,030518509475997192
12:26:47.318;0;Wrist;1;150;9,27;0;0;0;-0,014355907602589877;0,0023926511894857296;-0,01674855762788686;0,061037018951994385;0,24414807580797754;-0,030518509475997192
12:26:47.318;0;Wrist;1;151;9,27;0;0;0;0,004785302378971459;-0,004785302378971459;-0,0239265114291818;0,09155552842799158;0,09155552842799158;0
12:26:47.318;0;Wrist;1;152;9,27;0;0;0;0;0,007177953801294938;-0,007177953801294938;-0,030518509475997192;0,09155552842799158;-0,12207403790398877
12:26:47.318;0;Wrist;1;153;9,27;0;0;0;0,004785302378971459;0;-0,015552232615238368;0;0,061037018951994385;-0,12207403790398877
12:26:47.348;0;Wrist;1;154;9,12;0;0;0;0,004785302378971459;0;-0,0119632557145909;0;0,09155552842799158;-0,15259254737998595
12:26:47.348;0;Wrist;1;155;9,12;0;0;0;0,004785302378971459;-0,007177953801294938;-0,014355907602589877;-0,09155552842799158;0,061037018951994385;-0,030518509475997192
12:26:47.348;0;Wrist;1;156;9,12;0;0;0;0,009570604757942918;-0,009570604757942918;-0,00837427881394343;-0,12207403790398877;0;0
12:26:47.348;0;Wrist;1;157;9,12;0;0;0;0,00598162785729545;0,0011963255947428648;-0,0119632557145909;-0,24414807580797754;0;-0,030518509475997192
12:26:47.348;0;Wrist;1;158;9,12;0;0;0;0,0119632557145909;0,007177953801294938;0;-0,09155552842799158;-0,061037018951994385;0
12:26:47.370;0;Mov;1;19386;10,18;0;0;0;-0,004785302378971459;0,00837427881394343;0,02273018548518231;-0,09155552842799158;0,030518509475997192;-0,061037018951994385
12:26:47.370;0;Mov;1;19387;10,18;0;0;0;0,004785302378971459;-0,009570604757942918;0,014355907602589877;-0,15259254737998595;0,18311105685598317;-0,12207403790398877
12:26:47.370;0;Mov;1;19388;10,18;0;0;0;-0,014355907602589877;-0,007177953801294938;0,01674855762788686;-0,030518509475997192;0,12207403790398877;-0,030518509475997192
12:26:47.370;0;Mov;1;19389;10,18;0;0;0;-0,007177953801294938;-0,00837427881394343;0,0023926511894857296;0;-0,061037018951994385;0,030518509475997192
12:26:47.370;0;Mov;1;19390;10,18;0;0;0;-0,009570604757942918;-0,007177953801294938;-0,00598162785729545;-0,061037018951994385;0;0
12:26:47.407;0;Wrist;1;159;9,24;0;0;0;0,0011963255947428648;0,0023926511894857296;0,0011963255947428648;-0,061037018951994385;-0,030518509475997192;0
12:26:47.407;0;Wrist;1;160;9,24;0;0;0;0,007177953801294938;0,00598162785729545;-0,0119632557145909;-0,030518509475997192;-0,061037018951994385;0
12:26:47.407;0;Wrist;1;161;9,24;0;0;0;0,021533861403884816;0,009570604757942918;-0,015552232615238368;-0,21362956633198035;-0,061037018951994385;0
12:26:47.407;0;Wrist;1;162;9,24;0;0;0;0,004785302378971459;-0,015552232615238368;-0,007177953801294938;-0,12207403790398877;0;0
12:26:47.407;0;Wrist;1;163;9,24;0;0;0;0,0011963255947428648;-0,014355907602589877;-0,00598162785729545;-0,12207403790398877;0;0,030518509475997192
12:26:47.430;0;Mov;1;19391;10,27;0;0;0;0,003588976900647469;0;0,014355907602589877;0;-0,061037018951994385;0
12:26:47.430;0;Mov;1;19392;10,27;0;0;0;0,003588976900647469;-0,003588976900647469;0,007177953801294938;0;-0,12207403790398877;0,061037018951994385
12:26:47.431;0;Mov;1;19393;10,27;0;0;0;0,00598162785729545;-0,00837427881394343;0;0,030518509475997192;0,09155552842799158;0
12:26:47.431;0;Mov;1;19394;10,27;0;0;0;-0,007177953801294938;0,0011963255947428648;0,013159581658590389;0;0,030518509475997192;0,030518509475997192
12:26:47.431;0;Mov;1;19395;10,27;0;0;0;0,003588976900647469;0,004785302378971459;0,00598162785729545;0,030518509475997192;0;0
12:26:47.431;0;Mov;1;19396;9,82;0;0;0;-0,00837427881394343;0,00598162785729545;0,00837427881394343;0;0,030518509475997192;0
12:26:47.432;0;Mov;1;19397;9,82;0;0;0;-0,00837427881394343;-0,014355907602589877;0,00598162785729545;-0,12207403790398877;0,09155552842799158;-0,09155552842799158
12:26:47.432;0;Mov;1;19398;9,82;0;0;0;0;-0,00837427881394343;0,009570604757942918;-0,061037018951994385;-0,09155552842799158;0,030518509475997192
12:26:47.432;0;Mov;1;19399;9,82;0;0;0;-0,0023926511894857296;0,00837427881394343;0,004785302378971459;0;0,061037018951994385;-0,061037018951994385
12:26:47.432;0;Mov;1;19400;9,82;0;0;0;-0,014355907602589877;-0,020337535459885328;0,007177953801294938;-0,09155552842799158;0,09155552842799158;0
12:26:47.478;0;Wrist;1;164;9,46;0;0;0;-0,007177953801294938;-0,01674855762788686;0,0023926511894857296;-0,061037018951994385;-0,09155552842799158;0,061037018951994385
12:26:47.479;0;Wrist;1;165;9,46;0;0;0;-0,015552232615238368;-0,01674855762788686;-0,00837427881394343;-0,15259254737998595;-0,09155552842799158;0,21362956633198035
12:26:47.479;0;Wrist;1;166;9,46;0;0;0;0,004785302378971459;0,003588976900647469;-0,007177953801294938;-0,24414807580797754;-0,18311105685598317;0,15259254737998595
12:26:47.479;0;Wrist;1;167;9,46;0;0;0;-0,00598162785729545;0,007177953801294938;0;-0,3357036042359691;-0,3357036042359691;0,18311105685598317
12:26:47.479;0;Wrist;1;168;9,46;0;0;0;-0,0358897671437727;0,0011963255947428648;-0,00598162785729545;-0,27466658528397475;-0,45777764213995786;0,15259254737998595
12:26:47.497;0;Wrist;1;169;9,23;0;0;0;-0,031104465230476736;0;0,0011963255947428648;-0,3967406231879635;-0,5493331705679495;0,3051850947599719
12:26:47.498;0;Wrist;1;170;9,23;0;0;0;-0,03349711525577372;-0,020337535459885328;0,031104465230476736;-0,5188146610919523;-0,7019257179479355;0,5188146610919523
12:26:47.498;0;Wrist;1;171;9,23;0;0;0;-0,0478530228583636;0,01794488357188635;0,007177953801294938;-0,640888698995941;-0,9765923032319102;0,793481246375927
12:26:47.499;0;Wrist;1;172;9,23;0;0;0;-0,10527665326872311;-0,058619954491657;0,0705832102062479;-0,8545182653279214;-1,281777397991882;1,0071108127079074
12:26:47.499;0;Wrist;1;173;9,23;0;0;0;-0,16389660030957212;-0,013159581658590389;0,1064729773500206;-0,7324442274239327;-1,7700735496078372;1,7700735496078372
12:26:47.520;0;Mov;1;19401;10,16;0;0;0;-0,003588976900647469;-0,009570604757942918;0,015552232615238368;0;0,09155552842799158;0
12:26:47.520;0;Mov;1;19402;10,16;0;0;0;-0,01674855762788686;-0,01674855762788686;0,019141209515885837;-0,12207403790398877;-0,061037018951994385;0
12:26:47.521;0;Mov;1;19403;10,16;0;0;0;-0,02273018548518231;-0,009570604757942918;0,021533861403884816;0;-0,12207403790398877;0
12:26:47.521;0;Mov;1;19404;10,16;0;0;0;-0,013159581658590389;-0,031104465230476736;0,0239265114291818;0,12207403790398877;-0,15259254737998595;-0,030518509475997192
12:26:47.521;0;Mov;1;19405;10,16;0;0;0;-0,02273018548518231;-0,026319163317180778;0,02990813928647725;0,18311105685598317;-0,24414807580797754;0,030518509475997192
12:26:47.551;0;Mov;1;19406;10;0;0;0;-0,020337535459885328;-0,00837427881394343;0,04546037097036462;0,12207403790398877;-0,18311105685598317;0,061037018951994385
12:26:47.552;0;Mov;1;19407;10;0;0;0;-0,05742363041035951;-0,0239265114291818;0,08015381775824382;0;-0,18311105685598317;0,09155552842799158
12:26:47.552;0;Mov;1;19408;10;0;0;0;-0,06699423051154745;-0,021533861403884816;0,06340525826765496;0;-0,09155552842799158;0,09155552842799158
12:26:47.552;0;Mov;1;19409;10;0;0;0;-0,04306772280776963;-0,0466566987770661;0,03947874311306917;0,09155552842799158;-0,36622211371196634;0,12207403790398877
12:26:47.552;0;Mov;1;19410;10;0;0;0;-0,028711815205179753;-0,0239265114291818;0,028711815205179753;0,27466658528397475;-0,7324442274239327;0,061037018951994385
12:26:47.557;0;Wrist;1;174;9,34;0;0;0;-0,13279214439260537;-0,009570604757942918;0,09929502541142765;-0,5798516800439466;-2,5025177770317697;2,533036286507767
12:26:47.558;0;Wrist;1;175;9,34;0;0;0;-0,0933133975541322;0,014355907602589877;0,06819056204365291;-0,5188146610919523;-3,2349620044557024;2,9297769096957307
12:26:47.558;0;Wrist;1;176;9,34;0;0;0;-0,0705832102062479;0,03230079117447623;0,03349711525577372;-0,8239997558519242;-3,7232581560716573;3,295999023407697
12:26:47.558;0;Wrist;1;177;9,34;0;0;0;-0,027515489261180266;0,0023926511894857296;0,021533861403884816;-1,1597033600878932;-4,333628345591602;3,662221137119663
12:26:47.558;0;Wrist;1;178;9,34;0;0;0;0,05503097852236053;0,021533861403884816;-0,027515489261180266;-1,3428144169438765;-4,425183874019593;3,47911008026368
12:26:47.622;0;Wrist;1;179;9,47;0;0;0;0,0119632557145909;0,0119632557145909;-0,014355907602589877;-1,3733329264198737;-4,0284432508316295;2,9297769096957307
12:26:47.622;0;Wrist;1;180;9,47;0;0;0;0,052638326634361556;-0,007177953801294938;-0,028711815205179753;-1,6174810022278512;-4,119998779259621;2,807702871791742
12:26:47.622;0;Wrist;1;181;9,47;0;0;0;0,0478530228583636;-0,019141209515885837;-0,056227302603658026;-1,7090365306558428;-3,814813684499649;2,6245918149357585
12:26:47.622;0;Wrist;1;182;9,47;0;0;0;0,08015381775824382;-0,009570604757942918;-0,05503097852236053;-1,1291848506118962;-3,936887722403638;2,71614734336375
12:26:47.622;0;Wrist;1;183;9,47;0;0;0;0,05742363041035951;0,00598162785729545;-0,06220893046095347;-1,403851435895871;-4,24207281716361;2,5025177770317697
12:26:47.641;0;Mov;1;19411;10,31;0;0;0;-0,010766930701942408;-0,028711815205179753;0,015552232615238368;0,45777764213995786;-0,9765923032319102;0,09155552842799158
12:26:47.641;0;Mov;1;19412;10,31;0;0;0;0,04306772280776963;0,021533861403884816;0,0011963255947428648;0,5188146610919523;-1,3122959074678793;0,24414807580797754
12:26:47.641;0;Mov;1;19413;10,31;0;0;0;0,020337535459885328;0,040675070919770656;0;0,45777764213995786;-1,0376293221839046;0,27466658528397475
12:26:47.641;0;Mov;1;19414;10,31;0;0;0;0,020337535459885328;0,031104465230476736;-0,01794488357188635;0,5798516800439466;-1,0681478316599018;0,3357036042359691
12:26:47.641;0;Mov;1;19415;10,31;0;0;0;0,0239265114291818;0,03230079117447623;-0,00598162785729545;0,36622211371196634;-1,1597033600878932;0,09155552842799158
12:26:47.642;0;Mov;1;19416;9,93;0;0;0;-0,009570604757942918;0,0239265114291818;0,015552232615238368;0,09155552842799158;-0,9765923032319102;-0,21362956633198035
12:26:47.642;0;Mov;1;19417;9,93;0;0;0;0,02273018548518231;0,04904935066506508;0,0023926511894857296;0,030518509475997192;-0,9460737937559129;-0,21362956633198035
12:26:47.642;0;Mov;1;19418;9,93;0;0;0;0,015552232615238368;0;0,0023926511894857296;-0,061037018951994385;-0,793481246375927;-0,3357036042359691
12:26:47.643;0;Mov;1;19419;9,93;0;0;0;0,015552232615238368;0,0023926511894857296;0,0011963255947428648;-0,030518509475997192;-0,7324442274239327;-0,36622211371196634
12:26:47.643;0;Mov;1;19420;9,93;0;0;0;0,0239265114291818;-0,056227302603658026;-0,056227302603658026;0;-0,8850367748039186;-0,36622211371196634
12:26:47.648;0;Wrist;1;184;9,31;0;0;0;0,09809870133013016;0,03349711525577372;-0,0478530228583636;-1,73955504013184;-3,9063692129276406;2,166814172795801
12:26:47.648;0;Wrist;1;185;9,31;0;0;0;0,052638326634361556;-0,00598162785729545;-0,0358897671437727;-1,4343699453718681;-3,021332438123722;1,7700735496078372
12:26:47.648;0;Wrist;1;186;9,31;0;0;0;0,07776116214484084;0,019141209515885837;-0,08493911408343378;-1,4343699453718681;-2,5025177770317697;1,5259254737998595
12:26:47.648;0;Wrist;1;187;9,31;0;0;0;0,117239908983314;-0,014355907602589877;-0,09809870133013016;-1,6479995117038484;-2,3194067201757864;1,281777397991882
12:26:47.648;0;Wrist;1;188;9,31;0;0;0;0,26199529418889433;0,040675070919770656;-0,2249092104146321;-2,1057771538438064;-1,9531846064638203;0,9155552842799157
12:26:47.707;0;Wrist;1;189;9,4;0;0;0;0,3289895321512497;0,040675070919770656;-0,24524674214911343;-2,197332682271798;-0,3357036042359691;0,030518509475997192
12:26:47.707;0;Wrist;1;190;9,4;0;0;0;0,117239908983314;0,03708609495047418;-0,08972441785943175;-2,4414807580797753;1,098666341135899;-0,9460737937559129
12:26:47.707;0;Wrist;1;191;9,4;0;0;0;-0,0705832102062479;-0,010766930701942408;0,04426404688906713;-2,3499252296517836;1,586962492751854;-1,5564439832758568
12:26:47.707;0;Wrist;1;192;9,4;0;0;0;-0,05383465071565905;-0,05144199882766007;0,0358897671437727;-2,3499252296517836;1,281777397991882;-1,3428144169438765
12:26:47.707;0;Wrist;1;193;9,4;0;0;0;-0,019141209515885837;-0,00837427881394343;0,026319163317180778;-2,197332682271798;1,0376293221839046;-1,0681478316599018
12:26:47.731;0;Mov;1;19421;10,21;0;0;0;0,05144199882766007;-0,056227302603658026;-0,04426404688906713;0,24414807580797754;-1,0681478316599018;-0,15259254737998595
12:26:47.731;0;Mov;1;19422;10,21;0;0;0;0,09092074194072924;-0,05144199882766007;-0,031104465230476736;0,8850367748039186;-0,6103701895199438;0,27466658528397475
12:26:47.731;0;Mov;1;19423;10,21;0;0;0;0,03349711525577372;-0,02273018548518231;-0,027515489261180266;0,9765923032319102;-0,15259254737998595;0,4882961516159551
12:26:47.731;0;Mov;1;19424;10,21;0;0;0;-0,003588976900647469;-0,020337535459885328;-0,040675070919770656;1,281777397991882;-0,061037018951994385;0,6103701895199438
12:26:47.731;0;Mov;1;19425;10,21;0;0;0;0,010766930701942408;-0,013159581658590389;-0,00837427881394343;1,3733329264198737;-0,15259254737998595;0,7019257179479355
12:26:47.732;0;Mov;1;19426;9,86;0;0;0;0,02990813928647725;0,028711815205179753;-0,020337535459885328;1,403851435895871;-0,030518509475997192;0,9460737937559129
12:26:47.732;0;Mov;1;19427;9,86;0;0;0;0,038282419031771674;0,05383465071565905;-0,014355907602589877;1,2207403790398876;0,12207403790398877;0,9155552842799157
12:26:47.732;0;Mov;1;19428;9,86;0;0;0;0,020337535459885328;0,04546037097036462;0,014355907602589877;1,1291848506118962;0,15259254737998595;0,7629627368999298
12:26:47.732;0;Mov;1;19429;9,86;0;0;0;-0,01674855762788686;0,03230079117447623;0,027515489261180266;0,793481246375927;0,15259254737998595;0,5188146610919523
12:26:47.732;0;Mov;1;19430;9,86;0;0;0;-0,04306772280776963;0,013159581658590389;0,02273018548518231;0,7324442274239327;0;0,3967406231879635
12:26:47.789;0;Mov;1;19431;9,91;0;0;0;-0,1076693014313181;-0,028711815205179753;0,08972441785943175;0,640888698995941;-0,21362956633198035;0,24414807580797754
12:26:47.789;0;Mov;1;19432;9,91;0;0;0;-0,13518479255520036;-0,0358897671437727;0,11245460520731605;0,3967406231879635;-0,6714072084719382;0,27466658528397475
12:26:47.790;0;Mov;1;19433;9,91;0;0;0;-0,09092074194072924;-0,04306772280776963;0,08135014183954131;0,3051850947599719;-1,2512588885158848;0,27466658528397475
12:26:47.790;0;Mov;1;19434;9,91;0;0;0;-0,119632557145909;-0,07536851398224585;0,06819056204365291;0,3967406231879635;-1,8616290780358287;0,3357036042359691
12:26:47.790;0;Mov;1;19435;9,91;0;0;0;-0,11245460520731605;-0,05503097852236053;0,12082888867801446;0,3967406231879635;-2,8992584002197335;0,45777764213995786
12:26:47.808;0;Wrist;1;194;9,78;0;0;0;-0,04306772280776963;-0,0598162785729545;0,04546037097036462;-1,8616290780358287;0,8239997558519242;-0,8850367748039186
12:26:47.809;0;Wrist;1;195;9,78;0;0;0;-0,06340525826765496;-0,08733176969683676;0,05024567474636257;-1,3122959074678793;0,6714072084719382;-0,5798516800439466
12:26:47.809;0;Wrist;1;196;9,78;0;0;0;-0,0478530228583636;-0,02990813928647725;0,04187139500106815;-1,0376293221839046;0,27466658528397475;-0,18311105685598317
12:26:47.809;0;Wrist;1;197;9,78;0;0;0;-0,026319163317180778;-0,0693868861249504;0,04187139500106815;-0,9460737937559129;-0,36622211371196634;0,12207403790398877
12:26:47.809;0;Wrist;1;198;9,78;0;0;0;-0,0717795342875454;-0,0705832102062479;0,0358897671437727;-0,6103701895199438;-0,9155552842799157;0,3051850947599719
12:26:47.811;0;Wrist;1;199;9,47;0;0;0;-0,07297585836884289;-0,052638326634361556;0,05144199882766007;-0,21362956633198035;-1,3428144169438765;0,5798516800439466
12:26:47.811;0;Wrist;1;200;9,47;0;0;0;-0,06340525826765496;0;0,08852809377813425;0,21362956633198035;-1,6785180211798456;0,9765923032319102
12:26:47.811;0;Wrist;1;201;9,47;0;0;0;-0,06101260637965598;0,015552232615238368;0,07656483806354335;0,5798516800439466;-2,1057771538438064;1,0681478316599018
12:26:47.811;0;Wrist;1;202;9,47;0;0;0;-0,05144199882766007;0,01674855762788686;0,08733176969683676;0,7019257179479355;-2,563554795983764;0,9765923032319102
12:26:47.811;0;Wrist;1;203;9,47;0;0;0;-0,07297585836884289;-0,015552232615238368;0,14834437980189671;1,098666341135899;-2,7466658528397474;0,9155552842799157
12:26:47.857;0;Wrist;1;204;9,47;0;0;0;-0,14475540010719626;0,02990813928647725;0,14236275194460127;1,8616290780358287;-3,5706656086916717;0,7629627368999298
12:26:47.858;0;Wrist;1;205;9,47;0;0;0;-0,09211707347283471;-0,0358897671437727;0,12322153684060945;2,1057771538438064;-4,547257911923582;1,1902218695638904
12:26:47.858;0;Wrist;1;206;9,47;0;0;0;-0,06101260637965598;-0,0011963255947428648;0,1339884610230949;2,563554795983764;-4,699850459303567;1,4343699453718681
12:26:47.858;0;Wrist;1;207;9,47;0;0;0;-0,03349711525577372;0,02273018548518231;0,07536851398224585;2,8992584002197335;-5,035554063539537;1,7090365306558428
12:26:47.858;0;Wrist;1;208;9,47;0;0;0;0,0239265114291818;0,0011963255947428648;-0,025122837373181287;2,8687398907437363;-5,127109591967528;1,6785180211798456
12:26:47.940;0;Mov;1;19436;10,59;0;0;0;-0,2488357218438139;-0,03947874311306917;0,1674855800042726;0,4882961516159551;-4,272591326639607;0,7019257179479355
12:26:47.941;0;Mov;1;19437;10,59;0;0;0;-0,1890194432708594;0,04904935066506508;0,0693868861249504;1,3428144169438765;-6,591998046815394;0,5798516800439466
12:26:47.941;0;Mov;1;19438;10,59;0;0;0;-0,058619954491657;-0,0119632557145909;0,0957060457167272;2,044740134891812;-8,48414563432722;0,030518509475997192
12:26:47.941;0;Mov;1;19439;10,59;0;0;0;-0,0957060457167272;-0,0346934430624752;0,1076693014313181;1,8616290780358287;-8,545182653279214;-0,15259254737998595
12:26:47.941;0;Mov;1;19440;10,59;0;0;0;-0,058619954491657;-0,0358897671437727;-0,00837427881394343;1,8921475875118259;-9,002960295419172;-0,12207403790398877
12:26:47.943;0;Mov;1;19441;10,26;0;0;0;0,013159581658590389;-0,0023926511894857296;-0,04426404688906713;2,044740134891812;-9,369182409131138;-0,061037018951994385
12:26:47.943;0;Mov;1;19442;10,26;0;0;0;-0,05742363041035951;-0,08254646592083881;0,040675070919770656;2,0142216254158147;-9,24710837122715;-0,09155552842799158
12:26:47.943;0;Mov;1;19443;10,26;0;0;0;-0,10049134949272515;-0,07776116214484084;0,0693868861249504;2,166814172795801;-9,430219428083133;-0,030518509475997192
12:26:47.943;0;Mov;1;19444;10,26;0;0;0;-0,0693868861249504;-0,00837427881394343;0,0023926511894857296;1,9837031159398175;-10,101626636555071;0
12:26:47.943;0;Mov;1;19445;10,26;0;0;0;-0,01794488357188635;-0,0011963255947428648;-0,07536851398224585;1,3733329264198737;-10,925626392406995;0,21362956633198035
12:26:47.944;0;Mov;1;19446;9,95;0;0;0;0,11125828112601856;0,01794488357188635;-0,02990813928647725;0,793481246375927;-11,41392254402295;0,5493331705679495
12:26:47.944;0;Mov;1;19447;9,95;0;0;0;0,13638112408730582;0,14236275194460127;-0,06699423051154745;0,7019257179479355;-10,315256202887051;0,4882961516159551
12:26:47.944;0;Mov;1;19448;9,95;0;0;0;0,02990813928647725;0,10168767357402264;-0,04546037097036462;0,45777764213995786;-9,430219428083133;0,09155552842799158
12:26:47.944;0;Mov;1;19449;9,95;0;0;0;0,09211707347283471;0,019141209515885837;-0,11365092928861355;0,3051850947599719;-8,880886257515183;-0,24414807580797754
12:26:47.944;0;Mov;1;19450;9,95;0;0;0;0,06460158234895245;0,10049134949272515;-0,05024567474636257;-0,12207403790398877;-8,301034577471237;-0,4882961516159551
12:26:47.948;0;Wrist;1;209;9,74;0;0;0;0,04546037097036462;-0,02273018548518231;-0,031104465230476736;2,8687398907437363;-4,943998535111545;1,6174810022278512
12:26:47.948;0;Wrist;1;210;9,74;0;0;0;-0,0358897671437727;-0,010766930701942408;0,02990813928647725;2,8687398907437363;-4,852443006683553;1,7700735496078372
12:26:47.948;0;Wrist;1;211;9,74;0;0;0;-0,025122837373181287;-0,0705832102062479;0,0945097216354297;2,5940733054597613;-5,066072573015534;1,9531846064638203
12:26:47.948;0;Wrist;1;212;9,74;0;0;0;0,013159581658590389;-0,11365092928861355;0;2,9908139286477247;-5,4322946867275;1,922666096987823
12:26:47.948;0;Wrist;1;213;9,74;0;0;0;-0,040675070919770656;-0,040675070919770656;0,004785302378971459;3,6011841181676685;-5,676442762535478;2,380443739127781
12:26:47.949;0;Wrist;1;214;9,45;0;0;0;0,02990813928647725;-0,020337535459885328;-0,05503097852236053;3,326517532883694;-6,317331461531419;2,71614734336375
12:26:47.950;0;Wrist;1;215;9,45;0;0;0;0,07656483806354335;-0,04187139500106815;-0,06460158234895245;3,051850947599719;-6,164738914151433;2,685628833887753
12:26:47.950;0;Wrist;1;216;9,45;0;0;0;0,0466566987770661;0,0346934430624752;-0,03349711525577372;3,448591570787683;-5,706961272011475;2,4719992675557725
12:26:47.950;0;Wrist;1;217;9,45;0;0;0;0,0119632557145909;0,06340525826765496;-0,025122837373181287;3,3875545518356884;-5,523850215155492;2,288888210699789
12:26:47.950;0;Wrist;1;218;9,45;0;0;0;0,038282419031771674;0,007177953801294938;-0,003588976900647469;2,807702871791742;-5,584887234107486;2,075258644367809
12:26:48.010;0;Wrist;1;219;9,53;0;0;0;0,015552232615238368;0,013159581658590389;-0,027515489261180266;2,7771843623157446;-5,676442762535478;1,922666096987823
12:26:48.010;0;Wrist;1;220;9,53;0;0;0;0,03708609495047418;0,07297585836884289;-0,04904935066506508;2,380443739127781;-5,4322946867275;1,8616290780358287
12:26:48.011;0;Wrist;1;221;9,53;0;0;0;-0,0119632557145909;0,0693868861249504;0,05742363041035951;1,8616290780358287;-5,279702139347514;1,4954069643238623
12:26:48.011;0;Wrist;1;222;9,53;0;0;0;0,004785302378971459;0,08852809377813425;-0,00837427881394343;1,281777397991882;-5,340739158299509;1,4648884548478653
12:26:48.011;0;Wrist;1;223;9,53;0;0;0;0,025122837373181287;0,0933133975541322;-0,027515489261180266;0,5493331705679495;-5,493331705679495;1,3733329264198737
12:26:48.031;0;Mov;1;19451;10,18;0;0;0;-0,038282419031771674;0,04546037097036462;0,0119632557145909;-0,27466658528397475;-7,965330973235267;-0,5188146610919523
12:26:48.031;0;Mov;1;19452;10,18;0;0;0;-0,010766930701942408;0,01794488357188635;-0,0466566987770661;-0,640888698995941;-8,270516067995239;-0,9155552842799157
12:26:48.031;0;Mov;1;19453;10,18;0;0;0;0,1064729773500206;-0,0358897671437727;-0,117239908983314;-0,7019257179479355;-8,239997558519242;-1,0376293221839046
12:26:48.031;0;Mov;1;19454;10,18;0;0;0;0,0346934430624752;-0,052638326634361556;-0,08852809377813425;-0,640888698995941;-7,232886745811334;-1,1291848506118962
12:26:48.031;0;Mov;1;19455;10,18;0;0;0;-0,020337535459885328;0,0466566987770661;-0,05503097852236053;-0,7324442274239327;-6,683553575243385;-1,1291848506118962
12:26:48.032;0;Mov;1;19456;9,88;0;0;0;-0,014355907602589877;0,0346934430624752;-0,026319163317180778;-0,8239997558519242;-6,836146122623371;-1,5564439832758568
12:26:48.032;0;Mov;1;19457;9,88;0;0;0;-0,0705832102062479;0,01794488357188635;-0,027515489261180266;-0,9460737937559129;-7,049775688955352;-1,8005920590838342
12:26:48.032;0;Mov;1;19458;9,88;0;0;0;0,01674855762788686;0,058619954491657;-0,1076693014313181;-0,8545182653279214;-7,599108859523301;-1,9837031159398175
12:26:48.032;0;Mov;1;19459;9,88;0;0;0;0,08254646592083881;0,1531296761270867;-0,10527665326872311;-0,27466658528397475;-7,690664387951292;-2,3194067201757864
12:26:48.032;0;Mov;1;19460;9,88;0;0;0;-0,00598162785729545;0,06340525826765496;0;-0,45777764213995786;-7,4159978026673175;-2,7466658528397474
12:26:48.052;0;Wrist;1;224;9,5;0;0;0;0,14595171673768578;0,1435590685750908;-0,10049134949272515;-0,640888698995941;-5,706961272011475;0,8850367748039186
12:26:48.052;0;Wrist;1;225;9,5;0;0;0;0,2440504255186239;0,16868191153637807;-0,24285409398651844;-2,044740134891812;-4,852443006683553;0,030518509475997192
12:26:48.053;0;Wrist;1;226;9,5;0;0;0;0,3624866660340434;0,1292031646979049;-0,28352917235709707;-3,1434064760277107;-3,1434064760277107;-1,1597033600878932
12:26:48.053;0;Wrist;1;227;9,5;0;0;0;0,33736382307275614;0,1543260076591922;-0,24165777735602892;-3,5401470992156745;-0,45777764213995786;-2,685628833887753
12:26:48.053;0;Wrist;1;228;9,5;0;0;0;0,32061527103297527;0,1961974026602603;-0,18543046357615894;-4,852443006683553;1,3428144169438765;-4,211554307687613
12:26:48.090;0;Mov;1;19461;9,94;0;0;0;-0,07297585836884289;0,010766930701942408;-0,04426404688906713;-0,640888698995941;-7,446516312143315;-2,8992584002197335
12:26:48.091;0;Mov;1;19462;9,94;0;0;0;0,07895748622613834;0,20337534714804528;-0,06101260637965598;-0,6103701895199438;-7,904293954283273;-3,357036042359691
12:26:48.092;0;Mov;1;19463;9,94;0;0;0;0,04546037097036462;0,08613544561553926;-0,05503097852236053;-1,0071108127079074;-7,324442274239326;-4,150517288735618
12:26:48.092;0;Mov;1;19464;9,94;0;0;0;-0,07895748622613834;-0,0837427900021363;-0,05383465071565905;-1,098666341135899;-7,354960783715323;-4,1810357982116155
12:26:48.092;0;Mov;1;19465;9,94;0;0;0;0,0346934430624752;0,1411664204124958;-0,05383465071565905;-1,0681478316599018;-7,782219916379284;-4,089480269783624
12:26:48.098;0;Wrist;1;229;9,48;0;0;0;0,46297800807596057;0,19260842296555986;-0,33257852674756616;-6,134220404675435;3,2349620044557024;-6,19525742362743
12:26:48.098;0;Wrist;1;230;9,48;0;0,6041444135868405;0;0,6041444135868405;0,14834437980189671;-0,46058534501174964;-7,110812707907346;6,2868129520554215;-8,758812219611194
12:26:48.098;0;Wrist;1;231;9,48;0;0,774022656655324;-0,7118137150181585;0,774022656655324;0,11125828112601856;-0,7118137150181585;-7,660145878475295;10,895107882930997;-11,749626148258919
12:26:48.098;0;Wrist;1;232;9,48;0;1,0910489926984466;-0,8876735859439375;1,0910489926984466;-0,39837643317781607;-0,8876735859439375;-8,941923276467177;14,984588152714622;-14,77095858638264
12:26:48.098;0;Wrist;1;233;9,48;-0,6831019370670186;0,6220892971587267;-0,581414263492996;0,6220892971587267;-0,6831019370670186;-0,581414263492996;-9,33866389965514;20,722067934202094;-18,79940183721427
12:26:48.120;0;Mov;1;19466;9,82;0;0;0;0,021533861403884816;0,20935697500534073;-0,0466566987770661;-1,3122959074678793;-7,93481246375927;-4,24207281716361
12:26:48.120;0;Mov;1;19467;9,82;0;0;0;-0,0023926511894857296;0,2440504255186239;0,014355907602589877;-2,075258644367809;-8,02636799218726;-4,974517044587542
12:26:48.120;0;Mov;1;19468;9,82;0;0;0;0,019141209515885837;0,20337534714804528;0,06340525826765496;-2,8992584002197335;-8,178960539567248;-5,676442762535478
12:26:48.121;0;Mov;1;19469;9,82;0;0;0;0,05024567474636257;0,09690236979802469;0,08852809377813425;-3,9063692129276406;-8,02636799218726;-5,981627857295449
12:26:48.121;0;Mov;1;19470;9,82;0;0;0;0,16389660030957212;0,007177953801294938;0,007177953801294938;-4,974517044587542;-7,263405255287331;-5,951109347819452
12:26:48.158;0;Wrist;1;234;9,56;-2,4512712389751883;1,0192694584109012;0,9211706900234993;1,0192694584109012;-2,4512712389751883;0,9211706900234993;-9,460737937559129;23,37717825861385;-25,910214545121615
12:26:48.158;0;Wrist;1;235;9,56;0;0,996539248710593;0;0,996539248710593;0,2990813928647725;0,2787438760319071;-0,640888698995941;29,633472701193273;-41,35258033997619
12:26:48.158;0;Wrist;1;236;9,56;-1,250160222174749;0;0,5850032282860805;-0,41871395001068146;-1,250160222174749;0,5850032282860805;6,40888698995941;40,89480269783624;-57,161168248542744
12:26:48.158;0;Wrist;1;237;9,56;-1,0479811767555773;0;2,566118350779748;-0,363682967762917;-1,0479811767555773;2,566118350779748;15,533921323282572;44,77065340128788;-74,73982970671712
12:26:48.158;0;Wrist;1;238;9,56;1,2728904318750571;1,9129246126056703;0;1,9129246126056703;1,2728904318750571;-0,1674855800042726;19,867549668874172;51,21005890072329;-88,0153813287759
12:26:48.181;0;Mov;1;19471;9,89;0;0;0;0,2488357218438139;0,0358897671437727;-0,05383465071565905;-6,0121463667714465;-5,706961272011475;-5,706961272011475
12:26:48.181;0;Mov;1;19472;9,89;0;0;0;0,29668875960379343;0,1292031646979049;-0,10168767357402264;-6,988738670003357;-3,3875545518356884;-5,3102206488235115
12:26:48.181;0;Mov;1;19473;9,89;0;0;0;0,32061527103297527;0,12202521275931195;-0,12561418500320445;-8,209479049043244;-0,9460737937559129;-5,066072573015534
12:26:48.181;0;Mov;1;19474;9,89;0;0;0;0,2739585499034852;0,03230079117447623;-0,12082888867801446;-8,636738181707205;1,4343699453718681;-4,638813440351573
12:26:48.181;0;Mov;1;19475;9,89;0;0;0;0,23806879766132846;-0,0598162785729545;-0,13279214439260537;-8,545182653279214;3,662221137119663;-4,364146855067599
12:26:48.188;0;Wrist;1;239;9,46;3,297073370311594;4,0196539201025425;0,8505875170712912;4,0196539201025425;3,297073370311594;0,8505875170712912;20,661030915250098;66,07257301553392;-96,31641590624714
12:26:48.188;0;Wrist;1;240;9,46;2,6534501651814324;3,1882076479384747;2,6678060243537707;3,1882076479384747;2,6534501651814324;2,6678060243537707;29,847102267525255;93,32560197759942;-107,48619037446211
12:26:48.188;0;Wrist;1;241;9,46;5,552147072511978;4,585516201513718;6,603717154454176;4,585516201513718;5,552147072511978;6,603717154454176;20,75258644367809;98,51374858851894;-114,0476699118015
12:26:48.188;0;Wrist;1;242;9,46;7,009271427808466;7,3992736594744715;8,941337702566607;7,3992736594744715;7,009271427808466;8,941337702566607;-11,230811487166967;74,19049653614917;-102,96945097201453
12:26:48.188;0;Wrist;1;243;9,46;6,253193952757347;9,477291367839594;5,573680742057558;9,477291367839594;6,253193952757347;5,573680742057558;-14,587847529526657;55,60472426526688;-86,03167821283608
12:26:48.240;0;Mov;1;19476;9,94;0;0;0;0,18782311173875393;0,056227302603658026;-0,16389660030957212;-8,209479049043244;5,279702139347514;-3,8758507034516434
12:26:48.240;0;Mov;1;19477;9,94;0;0;0;0,1411664204124958;0,06101260637965598;-0,1064729773500206;-8,636738181707205;5,981627857295449;-3,845332193975646
12:26:48.240;0;Mov;1;19478;9,94;0;0;0;0,33736382307275614;0,0239265114291818;-0,22371287888252664;-8,301034577471237;7,5685903500473035;-3,662221137119663
12:26:48.240;0;Mov;1;19479;9,94;0;0;0;0,4091433573603015;-0,010766930701942408;-0,3026703874610889;-7,904293954283273;10,345774712363049;-3,0823694570757163
12:26:48.240;0;Mov;1;19480;9,94;0;0;0;0,23089083827192755;-0,0119632557145909;-0,23328348643452254;-8,178960539567248;13,458662678914761;-2,3194067201757864
12:26:48.248;0;Wrist;1;244;9,52;5,60837456511124;11,32800721762749;1,3195471530045473;11,32800721762749;5,60837456511124;1,3195471530045473;-11,749626148258919;41,566209906308174;-71,87108981597339
12:26:48.248;0;Wrist;1;245;9,52;5,512668519394513;12,649946974089785;0;12,649946974089785;5,512668519394513;0,4246955778679769;-8,911404766991181;35,76769310586871;-60,24353770561846
12:26:48.248;0;Wrist;1;246;9,52;5,479171117282632;13,62255947294534;1,2046999219870602;13,62255947294534;5,479171117282632;1,2046999219870602;-3,8758507034516434;27,771843623157444;-46,113467818231754
12:26:48.248;0;Wrist;1;247;9,52;5,108310190130314;14,436060861537522;1,6736594983138524;14,436060861537522;5,108310190130314;1,6736594983138524;2,380443739127781;13,214514603106783;-29,755546739097262
12:26:48.248;0;Wrist;1;248;9,52;4,230207316049684;15,049775688955352;1,4654988250373853;15,049775688955352;4,230207316049684;1,4654988250373853;8,056886501663259;-3,051850947599719;-13,48918118839076
12:26:48.270;0;Mov;1;19481;9,84;0;0;0;0,38760947919209876;-0,025122837373181287;-0,3624866660340434;-8,48414563432722;15,655995361186559;-1,6174810022278512
12:26:48.270;0;Mov;1;19482;9,84;0;0;0;0,34454178246215705;-0,20576799531064027;-0,3421491193979461;-8,087405011139255;18,280587176122317;-0,5798516800439466
12:26:48.270;0;Mov;1;19483;9,84;-0,6077333783799249;0;0;-0,1985900508228553;-0,6077333783799249;-0,14595171673768578;-6,74459059419538;19,34873500778222;1,0681478316599018
12:26:48.270;0;Mov;1;19484;9,84;0;0;-0,6185003323656423;0,43306986878948334;-0,3146336431756798;-0,6185003323656423;-4,699850459303567;17,212439344462418;2,8687398907437363
12:26:48.270;0;Mov;1;19485;9,84;0;0;0;0,26079899246002075;-0,3923948053205206;-0,3337748284764397;-0,6714072084719382;19,5623645741142;4,4557023834955904
12:26:48.307;0;Wrist;1;249;9,58;3,0374707689901426;15,0031195638905;1,2992095467619862;15,0031195638905;3,0374707689901426;1,2992095467619862;15,991698965422529;-18,219550157170325;0,5188146610919523
12:26:48.307;0;Wrist;1;250;9,58;1,9966674026078066;14,67652191991943;1,5731681264687032;14,67652191991943;1,9966674026078066;1,5731681264687032;22,644734031189916;-33,87554551835689;11,352885525070956
12:26:48.307;0;Wrist;1;251;9,58;1,269301407475509;13,97188673055208;2,2514846778008364;13,97188673055208;1,269301407475509;2,2514846778008364;27,680288094729452;-48,127689443647576;19,501327555162206
12:26:48.307;0;Wrist;1;252;9,58;0,8565691449285867;13,099765007477036;2,9848323007904294;13,099765007477036;0,8565691449285867;2,9848323007904294;29,81658375804926;-63,844721823786124;26,18488113040559
12:26:48.307;0;Wrist;1;253;9,58;0,6376415176664022;12,054177030243842;3,5160009975737787;12,054177030243842;0,6376415176664022;3,5160009975737787;29,633472701193273;-79,16501358073671;32,13599047822505
12:26:48.330;0;Mov;1;19486;9,9;0;-0,541935471949675;0;-0,541935471949675;-0,11604358490201651;0,13997008888039034;0,3357036042359691;21,698660237434005;6,347849971007416
12:26:48.331;0;Mov;1;19487;9,9;0;0;0;-0,3337748284764397;0,17466353939367352;0,4534073856223487;-4,852443006683553;21,027253028962065;6,530961027863399
12:26:48.331;0;Mov;1;19488;9,9;0;0;0;-0,04904935066506508;0,06579790643024995;0,18423414694566942;-3,6317026276436657;18,06695760979034;5,371257667775506
12:26:48.331;0;Mov;1;19489;9,9;0;0;0;-0,08254646592083881;0,10527665326872311;0,17107455969897306;-3,5706656086916717;18,127994628742332;5,005035554063539
12:26:48.331;0;Mov;1;19490;9,9;0;0;0;-0,117239908983314;0,1064729773500206;0,14714804826979125;-5,523850215155492;19,01303140354625;4,4557023834955904
12:26:48.338;0;Wrist;1;254;9,5;0,5610767168568987;10,786071924497207;3,9263407162694173;10,786071924497207;0,5610767168568987;3,9263407162694173;27,92443617053743;-92,68471327860347;37,47672963652455
12:26:48.338;0;Wrist;1;255;9,5;0,6232856584940641;9,507199507126073;4,022046761986145;9,507199507126073;0,6232856584940641;4,022046761986145;25,147251808221686;-105,80767235328227;42,63435773796808
12:26:48.338;0;Wrist;1;256;9,5;0,6890835649243141;8,149369983520005;3,8485795541245764;8,149369983520005;0,6890835649243141;3,8485795541245764;22,309030426953946;-116,91640980254525;47,73094882045961
12:26:48.338;0;Wrist;1;257;9,5;0,6842982387958922;6,719760925626392;3,337748344370861;6,719760925626392;0,6842982387958922;3,337748344370861;18,402661214026306;-124,45448164311655;52,095095675527205
12:26:48.338;0;Wrist;1;258;9,5;0,5574877520638142;5,366716608935819;2,4811793782616656;5,366716608935819;0,5574877520638142;2,4811793782616656;13,824884792626728;-128,60499893185218;55,177465132602926
12:26:48.397;0;Wrist;1;259;9,56;0;4,073488570818201;1,343473664433729;4,073488570818201;0,4761375953226569;1,343473664433729;8,819849238563188;-127,62840662862025;57,100131229590744
12:26:48.397;0;Wrist;1;260;9,56;0;2,8496474635303812;0;2,8496474635303812;0,1866267951082644;0,08015381775824382;3,5096285897396773;-120,24292733542893;57,313760795922725
12:26:48.397;0;Wrist;1;261;9,56;0;1,8040590094454787;-0,8721213654362621;1,8040590094454787;-0,1866267951082644;-0,8721213654362621;-2,4719992675557725;-106,81478316599018;54,78072450941496
12:26:48.397;0;Wrist;1;262;9,56;0;0,764452064004944;-0,6926725297173986;0,764452064004944;-0,25720999786370435;-0,6926725297173986;-6,897183141575366;-88,77834406567584;49,592577898495435
12:26:48.397;0;Wrist;1;263;9,56;0;0;0;-0,3050630207220679;-0,019141209515885837;0,10886562551261558;-7,293923764763329;-70,6198309274575;42,93954283272805
12:26:48.420;0;Mov;1;19491;10,09;0;0;0;-0,15911130398438214;0,0717795342875454;0,18303781541356395;-6,988738670003357;18,79940183721427;4,058961760307627
12:26:48.421;0;Mov;1;19492;10,09;0;0;0;-0,2009826989854503;0,17585985602416304;0,20217903051755579;-8,02636799218726;17,639698477126377;3,5706656086916717
12:26:48.421;0;Mov;1;19493;10,09;0;0;0;-0,14595171673768578;0,16868191153637807;0,1184362330646115;-9,399700918607135;16,693624683370466;2,6551103244117558
12:26:48.421;0;Mov;1;19494;10,09;0;0;0;-0,013159581658590389;0,11125828112601856;0,12322153684060945;-9,765923032319101;15,930661946470535;1,7700735496078372
12:26:48.421;0;Mov;1;19495;10,09;0;0;0;0,00598162785729545;0,027515489261180266;0,08015381775824382;-9,491256447035127;15,808587908566546;1,5259254737998595
12:26:48.422;0;Mov;1;19496;9,86;0;0;0;0,056227302603658026;-0,1507370279644917;-0,0478530228583636;-10,559404278695029;16,418958098086488;1,9837031159398175
12:26:48.422;0;Mov;1;19497;9,86;0;0;0;0,11484726082071901;-0,03349711525577372;0,0346934430624752;-11,261329996642964;17,242957853938414;2,838221381267739
12:26:48.422;0;Mov;1;19498;9,86;0;0;0;-0,0346934430624752;-0,07895748622613834;0,07297585836884289;-9,369182409131138;17,91436506241035;3,204443494979705
12:26:48.422;0;Mov;1;19499;9,86;0;0;0;-0,06340525826765496;-0,05503097852236053;0,026319163317180778;-8,423108615375225;17,853328043458358;3,5706656086916717
12:26:48.422;0;Mov;1;19500;9,86;0;0;0;-0,05024567474636257;0,06220893046095347;0,0478530228583636;-8,056886501663259;17,639698477126377;3,5401470992156745
12:26:48.468;0;Wrist;1;264;9,66;0,5072420661412397;-1,2716941301461837;1,0862636665700247;-1,2716941301461837;0,5072420661412397;1,0862636665700247;-3,47911008026368;-56,06250190740684;37,41569261757256
12:26:48.468;0;Wrist;1;265;9,66;1,179576989616077;-2,1497970042268135;2,085195518738365;-2,1497970042268135;1,179576989616077;2,085195518738365;3,69273964659566;-44,587542344431895;33,90606402783288
12:26:48.468;0;Wrist;1;266;9,66;2,031360868022706;-3,1176245345927307;3,352104203543199;-3,1176245345927307;2,031360868022706;3,352104203543199;12,93984801782281;-37,35465559862056;32,837916196172976
12:26:48.468;0;Wrist;1;267;9,66;3,085323791848506;-4,194317548905912;5,504294049653615;-4,194317548905912;3,085323791848506;5,504294049653615;21,820734275337994;-36,59169286172063;35,493026520584735
12:26:48.468;0;Wrist;1;268;9,66;4,0268319689016385;-5,665798001800592;8,840845973082674;-5,665798001800592;4,0268319689016385;8,840845973082674;29,328287606433303;-46,113467818231754;41,779839472640155
12:26:48.480;0;Mov;1;19501;9,9;0;0;0;-0,05383465071565905;0,117239908983314;0,02990813928647725;-7,324442274239326;17,456587420270395;2,9908139286477247
12:26:48.480;0;Mov;1;19502;9,9;0;0;0;-0,07297585836884289;0,11604358490201651;0,0693868861249504;-6,2868129520554215;16,663106173894466;2,380443739127781
12:26:48.480;0;Mov;1;19503;9,9;0;0;0;0,07297585836884289;0,05144199882766007;-0,04546037097036462;-6,836146122623371;16,785180211798455;1,4954069643238623
12:26:48.481;0;Mov;1;19504;9,9;0;0;0;-0,0466566987770661;0,05144199882766007;0,0945097216354297;-8,423108615375225;17,548142948698384;1,3733329264198737
12:26:48.481;0;Mov;1;19505;9,9;0;0;0;-0,06101260637965598;0,0598162785729545;0,11484726082071901;-7,873775444807276;17,792291024506362;1,1902218695638904
12:26:48.488;0;Wrist;1;269;9,53;4,121341593676565;-6,77239915540025;9,830207411420027;-6,77239915540025;4,121341593676565;9,830207411420027;35,9202856532487;-67,96472060304575;52,919095431379134
12:26:48.488;0;Wrist;1;270;9,53;3,3724419289986876;-7,70433668019654;8,105105746635335;-7,70433668019654;3,3724419289986876;8,105105746635335;43,54991302224799;-95,37034211249123;66,2251655629139
12:26:48.488;0;Wrist;1;271;9,53;2,3747062593462935;-8,458021790215765;5,104721404156621;-8,458021790215765;2,3747062593462935;5,104721404156621;48,55494857631153;-117,70989104892116;78,82930997650075
12:26:48.488;0;Wrist;1;272;9,53;1,031232714125492;-9,26434560686056;2,4931426339762566;-9,26434560686056;1,031232714125492;2,4931426339762566;44,67909787285989;-130,98544267097995;87,52708517715995
12:26:48.488;0;Wrist;1;273;9,53;-0,5060457048059023;-10,110147976622821;0,6627643904309214;-10,110147976622821;-0,5060457048059023;0,6627643904309214;38,08709982604449;-136,17358928189947;91,3113803521836
12:26:48.541;0;Mov;1;19506;9,95;0;0;0;0,13039949623001038;-0,0933133975541322;-0,02990813928647725;-8,48414563432722;18,280587176122317;1,1291848506118962
12:26:48.541;0;Mov;1;19507;9,95;0;0;0;0,39957273490668965;-0,27635121296769616;0,11125828112601856;-6,073183385723441;18,127994628742332;1,3733329264198737
12:26:48.541;0;Mov;1;19508;9,95;0;0;0;0,1818414838814585;-0,12681051653530992;0,02990813928647725;-1,73955504013184;19,257179479354228;2,197332682271798
12:26:48.541;0;Mov;1;19509;9,95;0;0;0;-0,14834437980189671;-0,1315958128604999;0,09211707347283471;1,2207403790398876;19,34873500778222;2,9297769096957307
12:26:48.541;0;Mov;1;19510;9,95;0;0;0;-0,0933133975541322;-0,1076693014313181;0,10288399765532014;2,685628833887753;18,18903164769433;3,9979247413556322
12:26:48.547;0;Wrist;1;274;9,59;-2,022986636707663;-11,001410527359845;-0,5718436112361522;-11,001410527359845;-2,022986636707663;-0,5718436112361522;33,90606402783288;-135,10544145023957;90,73152867213965
12:26:48.548;0;Wrist;1;275;9,59;-3,5243752288888213;-12,267122791222876;-1,320743454733421;-12,267122791222876;-3,5243752288888213;-1,320743454733421;32,44117557298502;-131,5652943510239;85,63493758964812
12:26:48.548;0;Wrist;1;276;9,59;-4,229010895107883;-13,376116786706138;-2,529032401120029;-13,376116786706138;-4,229010895107883;-2,529032401120029;32,013916440321054;-125,52262947477645;75,59434797204504
12:26:48.548;0;Wrist;1;277;9,59;-4,382140854365673;-14,308053834650716;-3,9945312261574144;-14,308053834650716;-4,382140854365673;-3,9945312261574144;26,032288583025604;-115,45152134769738;61,250648518326365
12:26:48.548;0;Wrist;1;278;9,59;-4,463490802484206;-15,28784485915708;-5,156163212988678;-15,28784485915708;-4,463490802484206;-5,156163212988678;14,069032868434705;-101,71819208349864;44,34339426862392
12:26:48.570;0;Mov;1;19511;9,86;0;0;0;0,00837427881394343;-0,20816065837485123;-0,0011963255947428648;2,2583697012237924;18,616290780358288;4,333628345591602
12:26:48.570;0;Mov;1;19512;9,86;0;0;0;0,025122837373181287;-0,25362103307061984;0,12441786092190694;3,845332193975646;18,005920590838343;5,371257667775506
12:26:48.570;0;Mov;1;19513;9,86;0;0;0;0,117239908983314;-0,09809870133013016;0,19260842296555986;7,38547929319132;17,3955504013184;7,477034821619312
12:26:48.571;0;Mov;1;19514;9,86;0;0;0;0,18303781541356395;-0,11604358490201651;0,09929502541142765;9,094515823847164;18,58577227088229;8,545182653279214
12:26:48.571;0;Mov;1;19515;9,86;0;0;0;-0,05144199882766007;-0,09211707347283471;0,358897671437727;9,613330484939116;20,050660725730154;9,735404522843105
12:26:48.611;0;Wrist;1;279;9,66;-4,348643452253792;-16,23533394878994;-4,992266895809808;-16,23533394878994;-4,348643452253792;-4,992266895809808;1,8005920590838342;-88,25952940458389;26,703695791497545
12:26:48.611;0;Wrist;1;280;9,66;-4,045973273415326;-16,91365169225135;-4,457509174626911;-16,91365169225135;-4,045973273415326;-4,457509174626911;-5,615405743583484;-77,70012512588885;10,284737693411055
12:26:48.611;0;Wrist;1;281;9,66;-3,9538560136722922;-16,937578203680534;-5,595214888454848;-16,937578203680534;-3,9538560136722922;-5,595214888454848;-7,660145878475295;-68,11731315042573;-3,69273964659566
12:26:48.611;0;Wrist;1;282;9,66;-3,9167700640125735;-16,783251823480942;-7,097799901577807;-16,783251823480942;-3,9167700640125735;-7,097799901577807;-8,636738181707205;-52,94961394085513;-16,937772759178443
12:26:48.611;0;Wrist;1;283;9,66;-3,5052339243751334;-16,358556245612963;-7,34304664372692;-16,358556245612963;-3,5052339243751334;-7,34304664372692;-11,871700186162908;-34,058656575212865;-28,71791741691336
12:26:48.630;0;Mov;1;19516;9,91;0;0;0;-0,3086520153183844;-0,025122837373181287;0,14834437980189671;6,622516556291391;26,123844111453597;10,162663655507066
12:26:48.630;0;Mov;1;19517;9,91;0;0;0;0,3708609271523179;-0,10288399765532014;-0,4581927117507706;7,110812707907346;28,290658284249396;8,789330729087192
12:26:48.630;0;Mov;1;19518;9,91;0;0,5204016235847041;0;0,5204016235847041;0,08733176969683676;0,4617816765438551;5,859553819391461;25,025177770317697;10,681478316599017
12:26:48.631;0;Mov;1;19519;9,91;0;0;0;0,04904935066506508;0,0717795342875454;0,30027772439687794;6,0121463667714465;30,579546494949188;10,834070863979003
12:26:48.632;0;Mov;1;19520;9,91;0;0;0;0,0346934430624752;-0,031104465230476736;0,290707131746498;5,951109347819452;35,798211615344705;10,559404278695029
12:26:48.638;0;Wrist;1;284;9,56;-2,952531558046205;-15,746037362285225;-6,8429822687459945;-15,746037362285225;-2,952531558046205;-6,8429822687459945;-15,137180700094607;-11,444441053498947;-39,1552476577044
12:26:48.638;0;Wrist;1;285;9,56;-2,2227729594561603;-15,123948065126498;-6,406323435163427;-15,123948065126498;-2,2227729594561603;-6,406323435163427;-17,3955504013184;12,512588885158848;-47,36472670674764
12:26:48.638;0;Wrist;1;286;9,56;-1,3267250825907162;-14,174065179906613;-5,818927484206672;-14,174065179906613;-1,3267250825907162;-5,818927484206672;-18,616290780358288;34,18073061311686;-52,858058412427134
12:26:48.638;0;Wrist;1;287;9,56;5,03772707678457;-0,9104037956442458;-7,207861568041017;-0,9104037956442458;5,03772707678457;-7,207861568041017;-30,4574724570452;49,37894833216346;-46,14398632770776
12:26:48.638;0;Wrist;1;288;9,56;-0,8003418311487167;10,22978053376873;3,2240974150822472;10,22978053376873;-0,8003418311487167;3,2240974150822472;-116,2144840845973;57,06961272011475;-27,222510452589496
12:26:48.689;0;Mov;1;19521;9,95;0;0;0;0,3218115727618488;0,12082888867801446;0,2476394052133244;2,9908139286477247;40,345469527268286;11,017181920834986
12:26:48.689;0;Mov;1;19522;9,95;0;0;0;0,4534073856223487;0,0945097216354297;0,19978636745334483;4,66933194982757;43,70250556962798;11,108737449262978
12:26:48.689;0;Mov;1;19523;9,95;0;0;0,527579612777337;0,4258919094000824;-0,0011963255947428648;0,527579612777337;5,584887234107486;47,8835413678396;11,566515091402936
12:26:48.690;0;Mov;1;19524;9,95;0;0,6005554487937559;0;0,6005554487937559;-0,004785302378971459;0,4534073856223487;4,303109836115604;54,23139133884701;12,085329752494888
12:26:48.690;0;Mov;1;19525;9,95;0;0,595770122665334;0;0,595770122665334;-0,15552232428968168;0,40435806103511157;5,523850215155492;58,32087160863063;13,763847773674733
12:26:48.698;0;Wrist;1;289;9,61;-1,4451613380077517;10,502542573320719;-0,6292672863513596;10,502542573320719;-1,4451613380077517;-0,6292672863513596;-96,34693441572314;78,70723593859675;-32,10547196874904
12:26:48.698;0;Wrist;1;290;9,61;2,1904722167119357;4,432386242255928;-13,505319757683035;4,432386242255928;2,1904722167119357;-13,505319757683035;-61,73894466994232;131,01596118045595;-36,9884334849086
12:26:48.698;0;Wrist;1;291;9,61;0;-3,7205725272377697;-7,514121009704886;-3,7205725272377697;-0,22132023071993165;-7,514121009704886;-90,45686208685568;187,0174260689108;-47,33420819727164
12:26:48.698;0;Wrist;1;292;9,61;1,6186285458693197;-7,953172685171056;10,66883125553148;-7,953172685171056;1,6186285458693197;10,66883125553148;-56,917020172734766;218,05475020599994;-29,053621021149326
12:26:48.698;0;Wrist;1;293;9,61;-4,297201643421736;-6,083315530869473;14,913395146031068;-6,083315530869473;-4,297201643421736;14,913395146031068;-31,40354625080111;191,5341654713584;1,3733329264198737
12:26:48.763;0;Wrist;1;294;9,68;-8,727195043794062;-3,6751123462630084;6,165861899929808;-3,6751123462630084;-8,727195043794062;6,165861899929808;-22,49214148380993;160,64943388164923;-2,563554795983764
12:26:48.763;0;Wrist;1;295;9,68;-4,988677632984405;-2,244306867427595;3,9215552709280677;-2,244306867427595;-4,988677632984405;3,9215552709280677;-12,878810998870815;151,31076998199407;-22,705771050141912
12:26:48.763;0;Wrist;1;296;9,68;2,304123146000549;-0,8637470745147557;4,908524105807673;-0,8637470745147557;2,304123146000549;4,908524105807673;4,791405987731559;146,54988250373853;-24,384289071321756
12:26:48.763;0;Wrist;1;297;9,68;10,640120014038514;-3,19418927579577;9,638795319986572;-3,19418927579577;10,640120014038514;9,638795319986572;-14,282662434766687;160,43580431531723;-2,3499252296517836
12:26:48.763;0;Wrist;1;298;9,68;4,757786988433485;-3,39158299508652;2,2526810987426376;-3,39158299508652;4,757786988433485;2,2526810987426376;-43,39732047486801;142,3383281960509;9,399700918607135
12:26:48.787;0;Wrist;1;299;9,58;-5,18008972441786;-2,622345604953154;7,808417195654164;-2,622345604953154;-5,18008972441786;7,808417195654164;-44,83169042023987;118,10663167210913;7,4159978026673175
12:26:48.787;0;Wrist;1;300;9,58;-5,566503170110172;-2,5314250045777764;4,303183271279031;-2,5314250045777764;-5,566503170110172;4,303183271279031;-20,75258644367809;96,13330484939115;-2,5940733054597613
12:26:48.787;0;Wrist;1;301;9,58;3,6129032258064515;-1,861482684560686;1,6784448244422743;-1,861482684560686;3,6129032258064515;1,6784448244422743;-6,134220404675435;78,58516190069277;0
12:26:48.787;0;Wrist;1;302;9,58;0,9510788293099764;-1,4248237317651906;2,0158085879085665;-1,4248237317651906;0,9510788293099764;2,0158085879085665;-12,482070375682852;55,726798303170874;-0,3967406231879635
12:26:48.787;0;Wrist;1;303;9,58;-1,4846400103381452;-0,7728263549264504;1,7059602410580768;-0,7728263549264504;-1,4846400103381452;1,7059602410580768;-13,672292245246743;41,35258033997619;-3,8758507034516434
12:26:48.840;0;Mov;1;19526;10,37;0;0,8505875170712912;0,5586840537926878;0,8505875170712912;0,0705832102062479;0,5586840537926878;7,904293954283273;59,816278572954495;16,96829126865444
12:26:48.840;0;Mov;1;19527;10,37;0;0;0,6854945405247658;0,4761375953226569;0,025122837373181287;0,6854945405247658;11,993774224066897;64,54664754173406;21,149327066866054
12:26:48.840;0;Mov;1;19528;10,37;0;0,6950651927816095;1,0707113864558855;0,6950651927816095;-0,015552232615238368;1,0707113864558855;12,115848261970886;69,79583117160558;25,605029450361645
12:26:48.840;0;Mov;1;19529;10,37;0;0,6699423200170904;1,4080752691351055;0,6699423200170904;-0,3265968988902707;1,4080752691351055;8,880886257515183;77,57805108798486;29,328287606433303
12:26:48.840;0;Mov;1;19530;10,37;-0,5658619833788567;1,360222246276742;2,258662726599933;1,360222246276742;-0,5658619833788567;2,258662726599933;8,941923276467177;91,43345439008759;33,41776787621693
12:26:48.841;0;Mov;1;19531;10,17;-0,900833143387402;3,1188207171086764;3,521982625431074;3,1188207171086764;-0,900833143387402;3,521982625431074;10,559404278695029;114,41389202551348;38,63643299661245
12:26:48.841;0;Mov;1;19532;10,17;-0,8290536090998566;3,7205725272377697;4,6381544312875755;3,7205725272377697;-0,8290536090998566;4,6381544312875755;16,266365550706503;155,85802789391767;43,12265388958403
12:26:48.842;0;Mov;1;19533;10,17;-0,8446058892139958;3,6655416940061647;7,197094733268227;3,6655416940061647;-0,8446058892139958;7,197094733268227;19,257179479354228;214,39252906888026;44,5570238349559
12:26:48.842;0;Mov;1;19534;10,17;0;1,848323007904294;6,668318639942625;1,848323007904294;-0,3505234103194525;6,668318639942625;11,688589129306925;295,9074678792688;48,066652424695576
12:26:48.843;0;Mov;1;19535;10,17;-1,7454390326013978;2,2275581663716544;8,961675428022096;2,2275581663716544;-1,7454390326013978;8,961675428022096;6,40888698995941;375,4692220831935;56,398205511642814
12:26:48.844;0;Mov;1;19536;9,97;-3,2396496951963867;2,325657053971984;9,37321085238197;2,325657053971984;-3,2396496951963867;9,37321085238197;16,663106173894466;457,8997161778619;65,73686941129795
12:26:48.844;0;Mov;1;19537;9,97;-2,6283272328104497;4,188335921048616;10,156804101687674;4,188335921048616;-2,6283272328104497;10,156804101687674;39,826654866176334;532,334360789819;82,39997558519242
12:26:48.844;0;Mov;1;19538;9,97;-1,7873104276024658;4,416834200567644;8,704465430158391;4,416834200567644;-1,7873104276024658;8,704465430158391;51,60679952391125;596,6673787652211;100,46693319498276
12:26:48.844;0;Mov;1;19539;9,97;-1,0898525717566454;3,801922713782159;8,32044434949797;3,801922713782159;-1,0898525717566454;8,32044434949797;39,91821039460433;650,5630664998322;119,75463118381299
12:26:48.844;0;Mov;1;19540;9,97;-1,2106815498443555;6,263960787530137;6,034266087069308;6,263960787530137;-1,2106815498443555;6,034266087069308;17,3955504013184;686,4528336436049;138,24884792626727
12:26:48.857;0;Wrist;1;304;9,85;0;-0,9714163759460738;1,3147618268761254;-0,9714163759460738;0,17346720786156805;1,3147618268761254;-7,9958494827112645;35,73717459639271;-2,288888210699789
12:26:48.857;0;Wrist;1;305;9,85;0;-0,8469984926717429;1,1843623157444991;-0,8469984926717429;-0,19260842296555986;1,1843623157444991;-5,76799829096347;26,032288583025604;-0,6714072084719382
12:26:48.857;0;Wrist;1;306;9,85;0;0;0,5682546464430677;-0,23806879766132846;-0,46417433960806603;0,5682546464430677;-3,7232581560716573;17,883846552934354;0,9765923032319102
12:26:48.857;0;Wrist;1;307;9,85;0;0;0;0,17227089123107853;-0,23208716980403302;0,031104465230476736;0,030518509475997192;14,67940305795465;2,9297769096957307
12:26:48.857;0;Wrist;1;308;9,85;0;0,7046357854319895;-0,6364452159375286;0,7046357854319895;-0,26438795725310527;-0,6364452159375286;2,6245918149357585;15,198217719046601;3,6317026276436657
12:26:48.902;0;Mov;1;19541;10,08;-2,5074984931485944;-5,952916138950774;10,56953642384106;-5,952916138950774;-2,5074984931485944;10,56953642384106;-34,30280465102084;661,3361003448591;158,14691610461745
12:26:48.902;0;Mov;1;19542;10,08;0,7764153197195349;-15,129929692983795;29,725102618488112;-15,129929692983795;0,7764153197195349;29,725102618488112;-107,76085695974609;399,73143711661123;197,8514969328898
12:26:48.902;0;Mov;1;19543;10,08;-5,054475539414655;3,454988298059023;37,31937620166631;3,454988298059023;-5,054475539414655;37,31937620166631;-80,14160588396862;124,02722251045259;224,28052613910336
12:26:48.902;0;Mov;1;19544;10,08;-9,13035695211646;5,728007122257149;35,435163426618246;5,728007122257149;-9,13035695211646;35,435163426618246;-71,01657155064547;75,59434797204504;208,50245674001283
12:26:48.902;0;Mov;1;19545;10,08;-11,752702795495468;8,162529183324686;26,00213629566332;8,162529183324686;-11,752702795495468;26,00213629566332;-64,97390667439802;-23,407696768089846;202,85653248695334
12:26:48.908;0;Wrist;1;309;9,48;0;0;0;0,3385601546048616;-0,27635121296769616;0,16270028367908262;5,951109347819452;17,94488357188635;2,9602954191717274
12:26:48.908;0;Wrist;1;310;9,48;0;0;0;-0,1411664204124958;-0,3660756308271279;0,49408247889454326;8,911404766991181;17,517624439222388;2,7466658528397474
12:26:48.908;0;Wrist;1;311;9,48;0;0;0;0,0119632557145909;-0,21653493439474167;0,14236275194460127;10,681478316599017;14,984588152714622;3,5706656086916717
12:26:48.908;0;Wrist;1;312;9,48;0;0;0;0,0119632557145909;0,12082888867801446;0,15193334459498123;12,085329752494888;14,1300698873867;3,448591570787683
12:26:48.908;0;Wrist;1;313;9,48;0,5610767168568987;0;0;-0,02990813928647725;0,5610767168568987;0,11006195704472106;11,871700186162908;13,031403546250802;1,922666096987823
12:26:48.930;0;Mov;1;19546;9,96;-11,572057061983093;9,2188854258858;14,944499229407636;9,2188854258858;-11,572057061983093;14,944499229407636;-27,130954924161504;-85,9096041749321;179,44883571886348
12:26:48.930;0;Mov;1;19547;9,96;-10,629352702414014;10,729844431897947;7,469857249671926;10,729844431897947;-10,629352702414014;7,469857249671926;-7,812738425855281;-109,62248603778191;157,7196569719535
12:26:48.930;0;Mov;1;19548;9,96;-10,7788933988464;11,079171689504685;3,719376344721824;11,079171689504685;-10,7788933988464;3,719376344721824;0,9765923032319102;-121,00589007232887;135,38010803552353
12:26:48.931;0;Mov;1;19549;9,96;-11,789788506729332;10,837513733329263;3,0255075132755516;10,837513733329263;-11,789788506729332;3,0255075132755516;-2,6245918149357585;-122,7454451124607;111,23996704000976
12:26:48.931;0;Mov;1;19550;9,96;-13,141636402478102;10,265670300912504;4,7446273117770925;10,265670300912504;-13,141636402478102;4,7446273117770925;-10,284737693411055;-124,11877803888058;81,27079073458053
12:26:48.938;0;Wrist;1;314;9,59;0,5491134611423079;0;0;0,10049134949272515;0,5491134611423079;-0,07536851398224585;8,880886257515183;10,834070863979003;-0,24414807580797754
12:26:48.938;0;Wrist;1;315;9,59;0;0;0;0,07895748622613834;0,41871395001068146;-0,04426404688906713;5,981627857295449;9,765923032319101;-2,5940733054597613
12:26:48.938;0;Wrist;1;316;9,59;0;0;0;0,003588976900647469;0,2153386028626362;0,0239265114291818;3,5096285897396773;8,911404766991181;-3,967406231879635
12:26:48.938;0;Wrist;1;317;9,59;0;0;0;0;-0,028711815205179753;0,058619954491657;1,8005920590838342;7,477034821619312;-4,119998779259621
12:26:48.938;0;Wrist;1;318;9,59;0;0;0;0,026319163317180778;-0,15193334459498123;0,05144199882766007;1,281777397991882;6,19525742362743;-3,5096285897396773
12:26:48.989;0;Mov;1;19551;9,94;-14,254219183935056;9,12198248237556;8,026148640400402;9,12198248237556;-14,254219183935056;8,026148640400402;-16,785180211798455;-134,31196020386363;44,740134891811884
12:26:48.989;0;Mov;1;19552;9,94;-14,474343470564898;7,944798215430159;10,469045648060549;7,944798215430159;-14,474343470564898;10,469045648060549;-21,51554918057802;-157,84173100985748;2,7466658528397474
12:26:48.990;0;Mov;1;19553;9,94;-13,504122859889524;7,118137150181585;10,859047402874843;7,118137150181585;-13,504122859889524;10,859047402874843;-26,52058473464156;-190,49653614917446;-41,016876735740226
12:26:48.990;0;Mov;1;19554;9,94;-11,682119205298013;6,364452040162359;10,150822473830377;6,364452040162359;-11,682119205298013;10,150822473830377;-31,5256202887051;-224,49415570543533;-81,27079073458053
12:26:48.991;0;Mov;1;19555;9,94;-9,492843409527879;5,428925729392376;9,338517983031709;5,428925729392376;-9,492843409527879;9,338517983031709;-36,866359447004605;-255,07370220038453;-113,55937376018555
12:26:48.998;0;Wrist;1;319;9,83;0;0;0;0,0478530228583636;-0,18543046357615894;0,11604358490201651;1,3428144169438765;5,798516800439467;-2,8992584002197335
12:26:48.998;0;Wrist;1;320;9,83;0;0;0;0,020337535459885328;-0,1064729773500206;0,13997008888039034;1,586962492751854;5,340739158299509;-2,533036286507767
12:26:48.998;0;Wrist;1;321;9,83;0;0;0;-0,007177953801294938;-0,019141209515885837;0,06579790643024995;1,2512588885158848;4,608294930875576;-2,4719992675557725
12:26:48.998;0;Wrist;1;322;9,83;0;0;0;0,04187139500106815;-0,014355907602589877;0,0023926511894857296;0,640888698995941;4,425183874019593;-2,5940733054597613
12:26:48.998;0;Wrist;1;323;9,83;0;0;0;0,09809870133013016;0,019141209515885837;-0,021533861403884816;0,6103701895199438;4,516739402447585;-2,7466658528397474
12:26:49.020;0;Mov;1;19556;9,96;-7,523691900387585;4,230207316049684;8,533390110477004;4,230207316049684;-7,523691900387585;8,533390110477004;-41,779839472640155;-282,387768181402;-136,8755149998474
12:26:49.020;0;Mov;1;19557;9,96;-5,842853995635853;3,151121698278756;7,0284127323221535;3,151121698278756;-5,842853995635853;7,0284127323221535;-44,89272743919187;-305,4292428357799;-152,50099185155798
12:26:49.021;0;Mov;1;19558;9,96;-4,4491347048860135;2,3471907235175635;6,104849677266762;2,3471907235175635;-4,4491347048860135;6,104849677266762;-45,74724570451979;-322,06183050019837;-161,77861873226112
12:26:49.021;0;Mov;1;19559;9,96;-3,0805383465071565;1,404486244735557;5,559325121311075;1,404486244735557;-3,0805383465071565;5,559325121311075;-43,42783898434401;-336,46656697286903;-165,62395092623677
12:26:49.021;0;Mov;1;19560;9,96;-1,4714804528946805;0,5443281350138859;5,29015186773278;0,5443281350138859;-1,4714804528946805;5,29015186773278;-45,28946806237983;-348,7350077822199;-164,76943266090885
12:26:49.058;0;Wrist;1;324;9,96;0;0;0;0,04546037097036462;0,07417218990094836;-0,03349711525577372;0,3051850947599719;4,943998535111545;-3,1434064760277107
12:26:49.058;0;Wrist;1;325;9,96;0;0;0;0,04306772280776963;0,01794488357188635;-0,0837427900021363;-0,12207403790398877;4,943998535111545;-3,173924985503708
12:26:49.058;0;Wrist;1;326;9,96;0;0;0;0,14475540010719626;0,0717795342875454;-0,1339884610230949;-0,5798516800439466;4,974517044587542;-3,1434064760277107
12:26:49.058;0;Wrist;1;327;9,96;0;0;0;0,1339884610230949;0,05503097852236053;-0,12082888867801446;-1,281777397991882;5,584887234107486;-3,5706656086916717
12:26:49.058;0;Wrist;1;328;9,96;0;0;0;0,11125828112601856;-0,026319163317180778;-0,07536851398224585;-1,922666096987823;5,890072328867458;-4,058961760307627
12:26:49.100;0;Wrist;1;329;10,01;0;0;0;0,239265114291818;0,015552232615238368;-0,12681051653530992;-2,3194067201757864;5,951109347819452;-4,486220892971588
12:26:49.100;0;Wrist;1;330;10,01;0;0;0;0,16628926337378308;-0,0023926511894857296;-0,08135014183954131;-2,6245918149357585;6,622516556291391;-4,974517044587542
12:26:49.101;0;Wrist;1;331;10,01;0;0;0;0,1411664204124958;-0,0358897671437727;-0,06699423051154745;-2,6245918149357585;7,477034821619312;-5,249183629871517
12:26:49.101;0;Wrist;1;332;10,01;0;0;0;0,11484726082071901;-0,026319163317180778;-0,05024567474636257;-2,6551103244117558;7,72118289742729;-5,371257667775506
12:26:49.101;0;Wrist;1;333;10,01;0;0;0;0,08254646592083881;-0,06819056204365291;-0,06579790643024995;-2,6551103244117558;8,14844203009125;-5,371257667775506
12:26:49.114;0;Mov;1;19561;10,07;0;0;5,164537682729575;-0,36487929929502244;0,2667806203173162;5,164537682729575;-55,60472426526688;-358,10419019135105;-161,07669301431318
12:26:49.114;0;Mov;1;19562;10,07;1,995471100878933;-1,5013885921811578;5,121469866786706;-1,5013885921811578;1,995471100878933;5,121469866786706;-73,27494125186927;-365,82537308877835;-153,38602862636188
12:26:49.114;0;Mov;1;19563;10,07;3,0410595549638355;-2,5589405404065064;5,052083174382763;-2,5589405404065064;3,0410595549638355;5,052083174382763;-95,27878658406324;-370,4336680196539;-142,2467726676229
12:26:49.114;0;Mov;1;19564;10,07;2,7946166302987763;-3,5985473666341137;5,10352498321482;-3,5985473666341137;2,7946166302987763;5,10352498321482;-111,17893002105777;-370,3726310007019;-131,13803521835993
12:26:49.114;0;Mov;1;19565;10,07;1,8662678914761803;-4,628583540604877;5,33441562776574;-4,628583540604877;1,8662678914761803;5,33441562776574;-110,99581896420179;-366,77144688253424;-121,06692709128086
12:26:49.139;0;Mov;1;19566;9,94;0;-5,800982600634785;6,114420091097751;-5,800982600634785;0,4773339268547624;6,114420091097751;-94,97360148930326;-359,53856013672294;-114,50544755394147
12:26:49.139;0;Mov;1;19567;9,94;-0,9391155735953856;-6,959026039918211;7,441145054475539;-6,959026039918211;-0,9391155735953856;7,441145054475539;-70,22309030426953;-351,2680440687277;-114,01715140232551
12:26:49.140;0;Mov;1;19568;9,94;-1,8854091959898678;-8,29651783806879;8,808544991912594;-8,29651783806879;-1,8854091959898678;8,808544991912594;-47,853022858363595;-344,5844904934843;-120,39551988280893
12:26:49.140;0;Mov;1;19569;9,94;-2,2945524937437054;-10,180730613116856;9,874471648304697;-10,180730613116856;-2,2945524937437054;9,874471648304697;-36,255989257484664;-339,60997344889677;-131,13803521835993
12:26:49.140;0;Mov;1;19570;9,94;-2,3077121704000976;-12,201324884792626;9,64836573381756;-12,201324884792626;-2,3077121704000976;9,64836573381756;-33,11258278145695;-334,6354564043092;-142,76558732871487
12:26:49.148;0;Wrist;1;334;9,95;0;0;0;0,08613544561553926;-0,06101260637965598;-0,05144199882766007;-3,1128879665517135;8,362071596423231;-5,3102206488235115
12:26:49.148;0;Wrist;1;335;9,95;0;0;0;0,08015381775824382;-0,0023926511894857296;-0,0346934430624752;-2,838221381267739;8,819849238563188;-5,493331705679495
12:26:49.148;0;Wrist;1;336;9,95;0;0;0;0,04426404688906713;-0,08135014183954131;0;-1,7090365306558428;9,704886013367107;-5,615405743583484
12:26:49.148;0;Wrist;1;337;9,95;0;0;0;0,025122837373181287;-0,05024567474636257;0,003588976900647469;-0,18311105685598317;10,681478316599017;-5,462813196203498
12:26:49.148;0;Wrist;1;338;9,95;0;0;0;0,04904935066506508;0,00837427881394343;-0,015552232615238368;-0,12207403790398877;10,620441297647023;-5,76799829096347
12:26:49.171;0;Mov;1;19571;9,96;-1,7047639393292031;-14,299679364909817;8,263020912808619;-14,299679364909817;-1,7047639393292031;8,263020912808619;-31,464583269753106;-325,72405163731804;-150,18158513138218
12:26:49.171;0;Mov;1;19572;9,96;0;-16,54996833704642;6,778380783257545;-16,54996833704642;-0,4306772057252724;6,778380783257545;-28,931546983245337;-310,8005005035554;-150,63936277352215
12:26:49.171;0;Mov;1;19573;9,96;0;-18,852895062105166;5,1154882389294105;-18,852895062105166;0,3505234103194525;5,1154882389294105;-27,222510452589496;-290,59724723044525;-144,07788323618274
12:26:49.171;0;Mov;1;19574;9,96;0;-21,092415768913845;3,233668067339091;-21,092415768913845;0,22371287888252664;3,233668067339091;-22,40058595538194;-267,4031800286874;-129,49003570665607
12:26:49.171;0;Mov;1;19575;9,96;0;-23,14650791955321;2,6283272328104497;-23,14650791955321;-0,42349924633587144;2,6283272328104497;-16,571550645466477;-243,17148350474562;-112,9795220801416
12:26:49.208;0;Wrist;1;339;9,84;0;0;0;0,2548173646027253;-0,04187139500106815;-0,10168767357402264;-1,281777397991882;10,040589617603077;-7,080294198431349
12:26:49.208;0;Wrist;1;340;9,84;0,5383465071565905;0;0;0,30745568378627885;0,5383465071565905;-0,13997008888039034;-2,1057771538438064;10,620441297647023;-9,03347880489517
12:26:49.208;0;Wrist;1;341;9,84;0;0;0;-0,09211707347283471;-0,4569963802186651;0,12561418500320445;-4,24207281716361;10,773033845027008;-10,620441297647023
12:26:49.208;0;Wrist;1;342;9,84;0;0;0;0,0119632557145909;-0,026319163317180778;-0,0466566987770661;-3,1128879665517135;9,7964415417951;-8,301034577471237
12:26:49.208;0;Wrist;1;343;9,84;0;0;0;0,2859218056180761;-0,2679769220461898;-0,18303781541356395;-4,303109836115604;8,270516067995239;-7,507553331095309
12:26:49.230;0;Mov;1;19576;9,96;-1,4487502431943724;-24,92903302102725;2,634308860667745;-24,92903302102725;-1,4487502431943724;2,634308860667745;-20,477919858394117;-221,59489730521562;-105,5024872585223
12:26:49.230;0;Mov;1;19577;9,96;-1,8172185668889431;-25,49848361156041;0;-25,49848361156041;-1,8172185668889431;0,09809870133013016;-35,43198950163274;-202,0935697500534;-114,2612994781335
12:26:49.230;0;Mov;1;19578;9,96;1,2956206415753655;-27,227174062318795;-2,5589405404065064;-27,227174062318795;1,2956206415753655;-2,5589405404065064;-52,980132450331126;-181,4630573442793;-132,87759025849178
12:26:49.231;0;Mov;1;19579;9,96;5,823713167973876;-31,878488647114477;-5,049690332499161;-31,878488647114477;5,823713167973876;-5,049690332499161;-67,3848689230018;-159,8559526352733;-140,0494399853511
12:26:49.231;0;Mov;1;19580;9,96;11,722794656208992;-33,85242393261513;-11,466780602435376;-33,85242393261513;11,722794656208992;-11,466780602435376;-79,04293954283273;-137,54692220831936;-123,63048188726462
12:26:49.238;0;Wrist;1;344;9,96;0;0;0;0,06101260637965598;0,15791497245227668;0,08493911408343378;-5,951109347819452;7,812738425855281;-7,080294198431349
12:26:49.239;0;Wrist;1;345;9,96;0;0;0;0,0011963255947428648;-0,009570604757942918;0,0705832102062479;-4,058961760307627;9,826960051271096;-7,538071840571306
12:26:49.239;0;Wrist;1;346;9,96;0;0;0;-0,01794488357188635;-0,06101260637965598;0,18782311173875393;-4,699850459303567;9,88799707022309;-6,500442518387402
12:26:49.239;0;Wrist;1;347;9,96;0;0;0;-0,003588976900647469;0,014355907602589877;0,4270882409321879;-4,699850459303567;11,749626148258919;-4,699850459303567
12:26:49.239;0;Wrist;1;348;9,96;0;0;0;-0,08135014183954131;-0,1184362330646115;0,2679769220461898;-3,357036042359691;15,503402813806574;-2,6551103244117558
12:26:49.290;0;Mov;1;19581;9,55;18,386328089236123;-33,79739524521622;-16,710276345103306;-33,79739524521622;18,386328089236123;-16,710276345103306;-100,10071108127079;-104,92263557847835;-83,22397534104434
12:26:49.290;0;Mov;1;19582;9,55;19,331425290688802;-33,74954222235786;-17,36227378154851;-33,74954222235786;19,331425290688802;-17,36227378154851;-123,8746299630726;-62,13568529313029;-28,168584246345407
12:26:49.290;0;Mov;1;19583;9,55;14,763854449598682;-32,27208014160588;-14,798547318948943;-32,27208014160588;14,763854449598682;-14,798547318948943;-108,64589373455;-21,912289803765983;24,750511185033723
12:26:49.290;0;Mov;1;19584;9,55;10,598248619037447;-30,44409390545366;-12,901175344096194;-30,44409390545366;10,598248619037447;-12,901175344096194;-45,808282723471784;18,15851313821833;62,13568529313029
12:26:49.290;0;Mov;1;19585;9,55;6,742491016113773;-25,687503814813684;-25,413544877468183;-25,687503814813684;6,742491016113773;-25,413544877468183;55,635242774742885;95,79760124515519;89,60234382152775
12:26:49.298;0;Wrist;1;349;9,56;0;0;0,525186949713126;-0,09690236979802469;0,0705832102062479;0,525186949713126;-3,69273964659566;17,792291024506362;-0,3967406231879635
12:26:49.298;0;Wrist;1;350;9,56;0;0;0,7070284484962004;0,14954069643238624;0,05144199882766007;0,7070284484962004;-2,7771843623157446;22,40058595538194;0,5798516800439466
12:26:49.298;0;Wrist;1;351;9,56;0;0;0,598162785729545;0,16270028367908262;0,2715659166425062;0,598162785729545;-3,021332438123722;29,48088015381329;0,640888698995941
12:26:49.298;0;Wrist;1;352;9,56;0;0;0,6017517505226295;0,16389660030957212;0,1961974026602603;0,6017517505226295;-6,0121463667714465;34,85213782158879;-0,5798516800439466
12:26:49.298;0;Wrist;1;353;9,56;0;0;0,8589617483863338;0,05742363041035951;0,26558428878521073;0,8589617483863338;-8,941923276467177;41,566209906308174;-1,8311105685598315
12:26:49.320;0;Mov;1;19586;9,66;9,398334261604663;-7,102585108493301;-6,031873722037416;-7,102585108493301;9,398334261604663;-6,031873722037416;178,2280953398236;138,40144047364726;114,0476699118015
12:26:49.320;0;Mov;1;19587;9,66;-3,8832729003265483;9,819440099795527;20,947660756248666;9,819440099795527;-3,8832729003265483;20,947660756248666;176,61061433759576;82,27790154728844;115,57359538560137
12:26:49.320;0;Mov;1;19588;9,66;-9,655544259468368;9,00952845088046;5,500705263679922;9,00952845088046;-9,655544259468368;5,500705263679922;83,37656788842433;151,21921445356608;102,1454512161626
12:26:49.321;0;Mov;1;19589;9,66;-6,638410500656148;-0,8577654466574602;-15,865669919431134;-0,8577654466574602;-6,638410500656148;-15,865669919431134;51,36265144810327;220,09949034089175;85,42130802331614
12:26:49.321;0;Mov;1;19590;9,66;1,3219397564622943;-12,744456122013;2,6654134208960234;-12,744456122013;1,3219397564622943;2,6654134208960234;61,58635212256233;272,5302896206549;53,31583605456709
12:26:49.357;0;Wrist;1;354;9,79;0,5359538440923796;0;1,6581072181997132;-0,0705832102062479;0,5359538440923796;1,6581072181997132;-5,3102206488235115;52,919095431379134;-4,272591326639607
12:26:49.357;0;Wrist;1;355;9,79;0;0,5754326356357006;0;0,5754326356357006;0,3313821952154607;0,3553087066446425;6,897183141575366;66,89657277138585;-10,22370067445906
12:26:49.357;0;Wrist;1;356;9,79;0;0;1,2250374090166936;0,12322153684060945;-0,031104465230476736;1,2250374090166936;12,573625904110843;67,32383190404981;-15,839106418042542
12:26:49.357;0;Wrist;1;357;9,79;0;0,5180089605204932;-0,774022656655324;0,5180089605204932;-0,3050630207220679;-0,774022656655324;13,641773735770744;72,7256080813013;-17,761772515030366
12:26:49.357;0;Wrist;1;358;9,79;0;1,2190557811593983;1,4176458021790215;1,2190557811593983;-0,3708609271523179;1,4176458021790215;-1,4954069643238623;62,318796349986265;-16,75466170232246
12:26:49.380;0;Mov;1;19591;9,89;8,481948301644948;-10,727451590014343;24,604829172643207;-10,727451590014343;8,481948301644948;24,604829172643207;57,71050141911069;243,78185369426558;15,717032380138553
12:26:49.380;0;Mov;1;19592;9,89;10,808801538132878;-3,3042511806848354;11,884298608355968;-3,3042511806848354;10,808801538132878;11,884298608355968;30,671102023377177;197,8209784234138;17,27347636341441
12:26:49.380;0;Mov;1;19593;9,89;-6,688656365398114;-2,2395214220862454;14,818885044404432;-2,2395214220862454;-6,688656365398114;14,818885044404432;54,07879879146702;186,13238929410687;30,701620532853177
12:26:49.380;0;Mov;1;19594;9,89;-12,725315294351024;-12,301815660573137;9,37321085238197;-12,301815660573137;-12,725315294351024;9,37321085238197;65,82842493972595;185,55253761406294;5,493331705679495
12:26:49.381;0;Mov;1;19595;9,89;3,392779416028321;-4,797265541550951;5,572484797967467;-4,797265541550951;3,392779416028321;5,572484797967467;70,83346049378949;128,2998138370922;-9,979552598651082
12:26:49.388;0;Wrist;1;359;9,91;0;1,934458520577105;0;1,934458520577105;0,28831446868228705;0,34095278786584066;-7,9958494827112645;78,40205084383679;-16,602069154942473
12:26:49.388;0;Wrist;1;360;9,91;0;3,4286691831720937;1,9727408911786248;3,4286691831720937;0,019141209515885837;1,9727408911786248;-11,474959562974945;86,947233497116;-20,966216010010072
12:26:49.388;0;Wrist;1;361;9,91;0;3,3736381115146337;2,954924161503952;3,3736381115146337;-0,12082888867801446;2,954924161503952;-8,301034577471237;121,28055665761285;-22,186956389049957
12:26:49.388;0;Wrist;1;362;9,91;-0,7704336918622394;7,3442425878170114;6,133561395611438;7,3442425878170114;-0,7704336918622394;6,133561395611438;6,073183385723441;184,08764915921506;-33,93658253730888
12:26:49.388;0;Wrist;1;363;9,91;0;6,185003204443495;7,987866031373028;6,185003204443495;0,32420423582605973;7,987866031373028;49,806207464827416;281,4722128971221;-62,86812952055421
12:26:49.439;0;Mov;1;19596;9,96;9,369622066408276;0;6,771202734458449;-0,46776330440115055;9,369622066408276;6,771202734458449;52,40028077028718;99,39878536332286;-5,76799829096347
12:26:49.439;0;Mov;1;19597;9,96;-1,9978637043366803;-3,8940397350993377;2,526639559236427;-3,8940397350993377;-1,9978637043366803;2,526639559236427;16,357921079134496;91,86071352275155;-3,051850947599719
12:26:49.439;0;Mov;1;19598;9,96;-1,9775262173070467;-2,5374066324350717;1,5743644281975768;-2,5374066324350717;-1,9775262173070467;1,5743644281975768;12,512588885158848;59,63316751609852;-5,951109347819452
12:26:49.440;0;Mov;1;19599;9,96;1,8088443355739006;0;1,1137790831858272;0,015552232615238368;1,8088443355739006;1,1137790831858272;11,047700430310984;39,52146977141636;-3,448591570787683
12:26:49.440;0;Mov;1;19600;9,96;0;0;0;-0,2548173646027253;-0,44144412990775783;0,1961974026602603;7,080294198431349;36,469618823816646;-3,5401470992156745
12:26:49.448;0;Wrist;1;364;9,96;2,7096774193548385;5,583251632740257;8,290536210211494;5,583251632740257;2,7096774193548385;8,290536210211494;88,53419598986785;379,80285042878506;-91,92175054170355
12:26:49.448;0;Wrist;1;365;9,96;1,6389660328989533;6,8944245544297615;9,635206534012879;6,8944245544297615;1,6389660328989533;9,635206534012879;91,52500991851558;476,0277108066042;-118,59492782372509
12:26:49.448;0;Wrist;1;366;9,96;1,074300410855434;7,021234683523057;7,734244819483016;7,021234683523057;1,074300410855434;7,734244819483016;74,28205206457717;574,8161259804072;-130,00885036774804
12:26:49.448;0;Wrist;1;367;9,96;0;6,318991859187597;7,977099196600238;6,318991859187597;0,4199102815427869;7,977099196600238;58,656575212866606;636,1888485366375;-142,03314310129093
12:26:49.448;0;Wrist;1;368;9,96;0;8,362315744499039;4,650117687002167;8,362315744499039;0,3146336431756798;4,650117687002167;94,39374980925932;711,1117893002106;-165,1051362651448
12:26:49.470;0;Mov;1;19601;9,96;-0,5000640769486069;0;0;-0,026319163317180778;-0,5000640769486069;0,058619954491657;7,202368236335337;32,13599047822505;-2,533036286507767
12:26:49.470;0;Mov;1;19602;9,96;0;0;0;0,12800683316579944;0,20337534714804528;0,12681051653530992;6,805627613147374;29,450361644337292;-0,3967406231879635
12:26:49.470;0;Mov;1;19603;9,96;0;0;0;-0,18303781541356395;0,10527665326872311;0,1770561875562685;5,7374797814874725;28,290658284249396;-0,3357036042359691
12:26:49.470;0;Mov;1;19604;9,96;0;0;0;0,052638326634361556;0,1794488357188635;0,11006195704472106;4,486220892971588;25,482955412457656;-1,0071108127079074
12:26:49.470;0;Mov;1;19605;9,96;0;0;0;0,22610554194673757;0,4055543627639851;-0,03708609495047418;2,2278511917477952;24,597918637653738;-1,73955504013184
12:26:49.478;0;Wrist;1;369;9,84;0;8,808544991912594;10,61380066072573;8,808544991912594;0,09809870133013016;10,61380066072573;146,21417889950254;754,4480727561266;-204,96230964079714
12:26:49.478;0;Wrist;1;370;9,84;5,7028841898861655;-17,893442716757715;30,761120181890316;-17,893442716757715;5,7028841898861655;30,761120181890316;162,41950743125705;614,1239661854916;-246,31488998077333
12:26:49.478;0;Wrist;1;371;9,84;16,70309877315592;0,5000640769486069;35,26050218207343;0,5000640769486069;16,70309877315592;35,26050218207343;125,15640736106448;218,08526871547593;-174,53535569322796
12:26:49.478;0;Wrist;1;372;9,84;15,046186902981658;18,56218718527787;32,03161717581713;18,56218718527787;15,046186902981658;32,03161717581713;117,03848384044923;74,61775566881313;-128,02514725180822
12:26:49.478;0;Wrist;1;373;9,84;17,729544969023713;13,58906254768517;22,33300653096103;13,58906254768517;17,729544969023713;22,33300653096103;61,464278084658346;30,579546494949188;-87,86278878139592
12:26:49.530;0;Mov;1;19606;9,96;0,6938688314462722;0;0;0,41632131674970246;0,6938688314462722;0,04904935066506508;-1,0681478316599018;25,269325846125675;-3,5096285897396773
12:26:49.531;0;Mov;1;19607;9,96;0,7429182156399732;0,6878872035889767;0;0,6878872035889767;0,7429182156399732;-0,06699423051154745;-5,890072328867458;28,290658284249396;-5,4322946867275
12:26:49.531;0;Mov;1;19608;9,96;0;0,7608630992118595;0;0,7608630992118595;0,3696645956202124;-0,35650503817674795;-10,681478316599017;33,20413830988495;-6,683553575243385
12:26:49.531;0;Mov;1;19609;9,96;0;0;0;0,37205725868442335;-0,1411664204124958;0,06699423051154745;-15,961180455946531;37,141026032288586;-6,622516556291391
12:26:49.531;0;Mov;1;19610;9,96;0;0;0;-0,04904935066506508;-0,39957273490668965;0,0358897671437727;-15,015106662190618;41,41361735892819;-4,24207281716361
12:26:49.538;0;Wrist;1;374;9,96;11,62349982451857;14,146549882503738;11,749114009521774;14,146549882503738;11,62349982451857;11,749114009521774;-13,885921811578722;-41,016876735740226;-36,74428540910062
12:26:49.538;0;Wrist;1;375;9,96;7,2102544099246195;14,402563936277351;5,2183723334452345;14,402563936277351;7,2102544099246195;5,2183723334452345;-28,38221381267739;-67,56797997985778;-1,2207403790398876
12:26:49.538;0;Wrist;1;376;9,96;5,282973818933684;14,186028435621203;2,8005982581560716;14,186028435621203;5,282973818933684;2,8005982581560716;-7,232886745811334;-84,7804193243202;22,15643787957396
12:26:49.538;0;Wrist;1;377;9,96;4,591497829371013;13,907284768211921;2,673787652211066;13,907284768211921;4,591497829371013;2,673787652211066;19,837031159398176;-99,91760002441481;38,85006256294442
12:26:49.538;0;Wrist;1;378;9,96;4,4766504791405985;13,409613711966308;3,7768000198370313;13,409613711966308;4,4766504791405985;3,7768000198370313;34,638508255256816;-114,47492904446547;52,43079927976318
12:26:49.591;0;Mov;1;19611;9,97;0;0;0;-0,48211922317995237;-0,4246955778679769;0,4498184208292642;-12,26844080935087;40,803247169408245;-2,075258644367809
12:26:49.591;0;Mov;1;19612;9,97;0;-0,6890835649243141;0;-0,6890835649243141;-0,3828241828669088;0,410339688892407;-7,263405255287331;33,81450849940489;-0,4272591326639607
12:26:49.591;0;Mov;1;19613;9,97;0;0;0;-0,14954069643238624;0,21653493439474167;0,1818414838814585;-4,333628345591602;26,001770073549608;-0,27466658528397475
12:26:49.591;0;Mov;1;19614;9,97;0;0;0;-0,12441786092190694;0,028711815205179753;0,22849819010933256;-5,706961272011475;23,010956144901883;-0,5798516800439466
12:26:49.591;0;Mov;1;19615;9,97;0;0;0;-0,22371287888252664;-0,22012391408944212;0,11484726082071901;-7,019257179479355;20,264290292062135;-0,21362956633198035
12:26:49.605;0;Wrist;1;379;9,99;4,252937406537065;12,889212088381603;5,089168885616626;12,889212088381603;4,252937406537065;5,089168885616626;29,969176305429244;-131,5958128604999;65,00442518387402
12:26:49.605;0;Wrist;1;380;9,99;3,5985473666341137;12,180987159337137;6,02589209418012;12,180987159337137;3,5985473666341137;6,02589209418012;13,428144169438765;-151,46336252937405;76,78456984160894
12:26:49.605;0;Wrist;1;381;9,99;2,4668232806634722;11,343559259315775;6,437427995391705;11,343559259315775;2,4668232806634722;6,437427995391705;-3,845332193975646;-174,26068910794396;86,91671498764
12:26:49.605;0;Wrist;1;382;9,99;1,0611408534119693;10,302756012146366;6,225678178502762;10,302756012146366;1,0611408534119693;6,225678178502762;-13,275551622058778;-197,45475630970182;93,69182409131137
12:26:49.605;0;Wrist;1;383;9,99;0;9,126768166142766;5,859602935117649;9,126768166142766;-0,03708609495047418;5,859602935117649;-13,183996093630787;-219,85534226508378;95,91967528305918
12:26:49.621;0;Mov;1;19616;9,96;0;0;0;0,07536851398224585;0,04306772280776963;0,028711815205179753;-9,857478560747094;18,097476119266336;0,9155552842799157
12:26:49.621;0;Mov;1;19617;9,96;0;0;0;0,1184362330646115;-0,14595171673768578;-0,0717795342875454;-10,834070863979003;17,975402081362347;1,922666096987823
12:26:49.621;0;Mov;1;19618;9,96;0;0;0;0,025122837373181287;-0,05742363041035951;-0,028711815205179753;-11,62755211035493;17,94488357188635;3,051850947599719
12:26:49.621;0;Mov;1;19619;9,96;0;0;0;0,009570604757942918;0,06460158234895245;0,08135014183954131;-11,139255958738975;17,334513382366406;3,662221137119663
12:26:49.621;0;Mov;1;19620;9,96;0;0;0;0,09929502541142765;0,015552232615238368;-0,00598162785729545;-10,162663655507066;17,426068910794395;3,9979247413556322
12:26:49.628;0;Wrist;1;384;9,84;0;7,8801967299417095;5,602392937253945;7,8801967299417095;-0,4701559674653615;5,602392937253945;-6,591998046815394;-240,88259529404584;95,6144901882992
12:26:49.628;0;Wrist;1;385;9,84;0;6,65157017731254;5,206409077730644;6,65157017731254;-0,43187353725737787;5,206409077730644;-1,1597033600878932;-260,10925626392407;95,6144901882992
12:26:49.628;0;Wrist;1;386;9,84;0;5,274599349192785;4,727878849147007;5,274599349192785;-0,1339884610230949;4,727878849147007;-1,9531846064638203;-275,67369609668265;96,46900845362713
12:26:49.628;0;Wrist;1;387;9,84;0;3,756462294381542;4,357017921994689;3,756462294381542;0,1507370279644917;4,357017921994689;-7,843256935331278;-287,0265816217536;98,9104892117069
12:26:49.628;0;Wrist;1;388;9,84;0;2,3974365882595294;3,952659831156346;2,3974365882595294;0,0837427900021363;3,952659831156346;-14,89303262428663;-294,4425794244209;102,72530289620654
12:26:49.680;0;Mov;1;19621;9,71;0;0;0;0,11245460520731605;-0,020337535459885328;-0,0693868861249504;-10,284737693411055;18,951994384594258;4,486220892971588
12:26:49.680;0;Mov;1;19622;9,71;0;0;0;-0,10168767357402264;0,015552232615238368;0,2273018585772271;-11,20029297769097;20,599993896298106;4,8829615161595505
12:26:49.680;0;Mov;1;19623;9,71;0;0;0;-0,028711815205179753;0,22012391408944212;0,14236275194460127;-10,773033845027008;19,196142460402235;4,547257911923582
12:26:49.680;0;Mov;1;19624;9,71;0;0;0;-0,11245460520731605;-0,00837427881394343;0,040675070919770656;-9,33866389965514;19,074068422498247;4,0284432508316295
12:26:49.680;0;Mov;1;19625;9,71;0;0;0;0,04904935066506508;0,038282419031771674;0,05144199882766007;-9,857478560747094;17,853328043458358;3,295999023407697
12:26:49.688;0;Wrist;1;389;9,96;0;1,2238411072878201;3,8725060655537584;1,2238411072878201;-0,010766930701942408;3,8725060655537584;-20,783104953154087;-299,2645039216285;106,66219061861018
12:26:49.688;0;Wrist;1;390;9,96;0;0;4,328306203650014;0,007177953801294938;0,24285409398651844;4,328306203650014;-24,903103732413708;-302,0416882839442;109,7750785851619
12:26:49.688;0;Wrist;1;391;9,96;0,7536851100192267;-1,2130741533021028;4,754197725608082;-1,2130741533021028;0,7536851100192267;4,754197725608082;-29,328287606433303;-303,5065767387921;113,86455885494553
12:26:49.688;0;Wrist;1;392;9,96;1,1783806878872036;-2,379491704687643;5,0126041444135865;-2,379491704687643;1,1783806878872036;5,0126041444135865;-36,04235969115268;-303,4760582293161;119,02218695638905
12:26:49.688;0;Wrist;1;393;9,96;1,3494552922910246;-3,443025042344432;5,122666287728507;-3,443025042344432;1,3494552922910246;5,122666287728507;-44,49598681600391;-302,37739188818017;123,8746299630726
12:26:49.711;0;Mov;1;19626;9,83;0;0;0;0,0478530228583636;-0,0717795342875454;0,025122837373181287;-9,33866389965514;17,883846552934354;2,8687398907437363
12:26:49.711;0;Mov;1;19627;9,83;0;0;0;0,03947874311306917;-0,2667806203173162;-0,03708609495047418;-9,155552842799157;18,67732779931028;3,1434064760277107
12:26:49.711;0;Mov;1;19628;9,83;0;0;0;0,15552232428968168;-0,16389660030957212;0,020337535459885328;-9,399700918607135;19,257179479354228;4,211554307687613
12:26:49.711;0;Mov;1;19629;9,83;0;0;0;0,058619954491657;-0,2153386028626362;-0,038282419031771674;-7,324442274239326;19,287697988830224;5,096591082491531
12:26:49.711;0;Mov;1;19630;9,83;0;0;0;0,12202521275931195;-0,06340525826765496;0,00598162785729545;-5,829035309915464;18,951994384594258;5,798516800439467
12:26:49.749;0;Wrist;1;394;9,79;1,489425336466567;-4,4527239677114165;5,712454603717155;-4,4527239677114165;1,489425336466567;5,712454603717155;-52,06457716605121;-299,50865199743646;126,49922177800836
12:26:49.749;0;Wrist;1;395;9,79;1,6616962425992614;-5,2422988448744166;6,4410167813653985;-5,2422988448744166;1,6616962425992614;6,4410167813653985;-57,37479781487472;-296,30420850245673;125,70574053163243
12:26:49.749;0;Wrist;1;396;9,79;1,948814379749443;-5,866780507065035;6,582183484908597;-5,866780507065035;1,948814379749443;6,582183484908597;-61,18961149937437;-293,03872798852507;121,58574175237281
12:26:49.749;0;Wrist;1;397;9,79;2,2813928170873137;-6,141935388500626;6,040247714926603;-6,141935388500626;2,2813928170873137;6,040247714926603;-63,47849971007416;-288,46095156712545;114,0476699118015
12:26:49.750;0;Wrist;1;398;9,79;2,993206532105472;-6,427857581560716;5,393035962248604;-6,427857581560716;2,993206532105472;5,393035962248604;-63,17331461531419;-279,3664357432783;103,91552476577044
12:26:49.770;0;Mov;1;19631;9,96;0;0;0;0,0478530228583636;-0,10288399765532014;-0,013159581658590389;-4,638813440351573;18,67732779931028;6,164738914151433
12:26:49.770;0;Mov;1;19632;9,96;0;0;0;-0,003588976900647469;0,0478530228583636;0,09809870133013016;-6,317331461531419;18,860438856166265;6,988738670003357
12:26:49.770;0;Mov;1;19633;9,96;0;0;0;0,009570604757942918;0,09929502541142765;0,12441786092190694;-7,507553331095309;18,982512894070254;6,836146122623371
12:26:49.770;0;Mov;1;19634;9,96;0;0;0;0,0011963255947428648;0,09929502541142765;0,05742363041035951;-8,972441785943175;19,440290536210213;6,347849971007416
12:26:49.770;0;Mov;1;19635;9,96;0;0;0;0,08613544561553926;0,3218115727618488;0,21653493439474167;-10,132145146031068;19,65392010254219;5,798516800439467
12:26:49.784;0;Wrist;1;399;9,87;4,1022002891628775;-7,0284127323221535;5,329630420850246;-7,0284127323221535;4,1022002891628775;5,329630420850246;-61,00650044251839;-265,78569902645955;93,08145390179143
12:26:49.784;0;Wrist;1;400;9,87;5,160948419904172;-8,081179235206152;5,548558286538285;-8,081179235206152;5,160948419904172;5,548558286538285;-55,75731681264687;-251,1368144779809;84,6888637958922
12:26:49.785;0;Wrist;1;401;9,87;5,73997037797174;-9,188977286599323;5,559325121311075;-9,188977286599323;5,73997037797174;5,559325121311075;-46,7238380077517;-237,22037415692617;79,98901333658864
12:26:49.785;0;Wrist;1;402;9,87;6,039051770836513;-10,891348384044923;7,0284127323221535;-10,891348384044923;6,039051770836513;7,0284127323221535;-33,41776787621693;-224,0363780632954;76,54042176580096
12:26:49.785;0;Wrist;1;403;9,87;6,000769161809138;-13,22537919248024;10,216620380260627;-13,22537919248024;6,000769161809138;10,216620380260627;-15,839106418042542;-217,93267616809595;73,9463484603412
12:26:49.829;0;Mov;1;19636;9,84;0;0;0;0,08733176969683676;0,05144199882766007;0,08852809377813425;-11,963255714590899;21,17984557634205;5,401776177251503
12:26:49.829;0;Mov;1;19637;9,84;0;0;0;0,12800683316579944;0,13039949623001038;0,06101260637965598;-13,58073671681875;22,095400860621968;4,943998535111545
12:26:49.829;0;Mov;1;19638;9,84;0;0;0;0,13518479255520036;-0,06460158234895245;-0,013159581658590389;-13,48918118839076;22,61421552171392;3,448591570787683
12:26:49.829;0;Mov;1;19639;9,84;0;0;0;0,16509293184167761;0,19739371929074984;0,05144199882766007;-12,665181432538835;22,675252540665912;2,166814172795801
12:26:49.830;0;Mov;1;19640;9,84;0;0;0;0,058619954491657;-0,15911130398438214;-0,05024567474636257;-11,352885525070956;23,651844843897823;1,2512588885158848
12:26:49.838;0;Wrist;1;404;9,96;5,708865817743462;-15,45413449507126;13,128477202673421;-15,45413449507126;5,708865817743462;13,128477202673421;6,500442518387402;-223,8837855159154;74,9534592730491
12:26:49.838;0;Wrist;1;405;9,96;4,6106386570329905;-17,349114581743827;13,330655652027955;-17,349114581743827;4,6106386570329905;13,330655652027955;28,504287850581377;-239,78392895290995;77,1202734458449
12:26:49.838;0;Wrist;1;406;9,96;1,777739775345622;-19,211792733542893;10,484597689748833;-19,211792733542893;1,777739775345622;10,484597689748833;44,5570238349559;-258,15607165746025;77,42545854060488
12:26:49.838;0;Wrist;1;407;9,96;-1,6030762657551805;-20,47152432325205;5,262636093478195;-20,47152432325205;-1,6030762657551805;5,262636093478195;61,06753746147038;-270,7296975615711;70,80294198431349
12:26:49.838;0;Wrist;1;408;9,96;-4,0722921498764;-21,982482375560778;0;-21,982482375560778;-4,0722921498764;0,31582994490455335;76,69301431318094;-267,92199468977935;52,88857692190314
12:26:49.860;0;Mov;1;19641;9,72;0;0;0;0,03947874311306917;-0,24524674214911343;-0,0119632557145909;-9,735404522843105;23,773918881801812;1,6479995117038484
12:26:49.860;0;Mov;1;19642;9,72;0;0;0;0,3265968988902707;-0,0717795342875454;0,11006195704472106;-7,965330973235267;24,384289071321756;2,4414807580797753
12:26:49.860;0;Mov;1;19643;9,72;0;0;0;0,12681051653530992;-0,3050630207220679;0,15671865582178715;-3,5096285897396773;24,53688161870174;3,2349620044557024
12:26:49.860;0;Mov;1;19644;9,72;0;0;0;0,34813074725524157;-0,3265968988902707;0,18543046357615894;0,8239997558519242;25,025177770317697;4,638813440351573
12:26:49.860;0;Mov;1;19645;9,72;0;0;0;0,2667806203173162;-0,1507370279644917;0,2584063293958098;3,173924985503708;27,466658528397474;6,591998046815394
12:26:49.897;0;Wrist;1;409;9,96;-5,755522419660024;-24,14543977172155;-2,73838937612537;-24,14543977172155;-5,755522419660024;-2,73838937612537;80,66042054506057;-251,59459212012086;25,269325846125675
12:26:49.897;0;Wrist;1;410;9,96;-7,296389564958647;-27,138645588549455;-4,319931733909116;-27,138645588549455;-7,296389564958647;-4,319931733909116;75,59434797204504;-228,49208044679096;-9,430219428083133
12:26:49.897;0;Wrist;1;411;9,96;-8,334800447096164;-30,692930387279887;-6,118008877071444;-30,692930387279887;-8,334800447096164;-6,118008877071444;74,40412610248116;-204,93179113132115;-45,99139378032777
12:26:49.897;0;Wrist;1;412;9,96;-7,7701345866267895;-33,17769783623768;-9,892416531876583;-33,17769783623768;-7,7701345866267895;-9,892416531876583;79,68382824182866;-178,07550279244361;-75,68590350047303
12:26:49.897;0;Wrist;1;413;9,96;-5,201623870815149;-33,57248527481918;-14,461183317056795;-33,57248527481918;-5,201623870815149;-14,461183317056795;75,35019989623707;-136,84499649037141;-88,74782555619983
12:26:49.927;0;Wrist;1;414;9,8;-2,221576538514359;-31,815082628864406;-16,45426229132969;-31,815082628864406;-2,221576538514359;-16,45426229132969;41,84087649159215;-78,46308786278878;-83,40708639790033
12:26:49.927;0;Wrist;1;415;9,8;-0,8876735859439375;-28,75488105410932;-13,712283890804773;-28,75488105410932;-0,8876735859439375;-13,712283890804773;-17,548142948698384;-14,465773491622668;-66,28620258186591
12:26:49.927;0;Wrist;1;416;9,8;-1,250160222174749;-25,95787301248207;-7,64930608539079;-25,95787301248207;-1,250160222174749;-7,64930608539079;-68,23938718832972;38,72798852504044;-48,28028199102756
12:26:49.927;0;Wrist;1;417;9,8;-5,8021790215765865;-22,571075701162755;-18,947405163731805;-22,571075701162755;-5,8021790215765865;-18,947405163731805;-109,37833796197394;96,53004547257912;-48,677022614215524
12:26:49.928;0;Wrist;1;418;9,8;-5,992394692068239;-3,964623086870937;-8,301303521835994;-3,964623086870937;-5,992394692068239;-8,301303521835994;-143,89477217932676;150,51728873561817;-85,97064119388409
12:26:49.954;0;Mov;1;19646;10,09;0;-0,5515061242065188;0;-0,5515061242065188;-0,1866267951082644;0,21892758255733666;3,7537766655476545;33,17361980040895;6,836146122623371
12:26:49.954;0;Mov;1;19647;10,09;0;0,7788079827837459;0;0,7788079827837459;-0,05503097852236053;-0,14954069643238624;7,080294198431349;31,128879665517136;6,347849971007416
12:26:49.954;0;Mov;1;19648;10,09;0;0;0,6508011347163305;0,23806879766132846;0,1064729773500206;0,6508011347163305;5,096591082491531;30,21332438123722;9,063997314371166
12:26:49.954;0;Mov;1;19649;10,09;0;0;0,5527024259353923;0,02273018548518231;-0,27635121296769616;0,5527024259353923;7,507553331095309;36,164433729056675;8,545182653279214
12:26:49.954;0;Mov;1;19650;10,09;0;0;0;0,17107455969897306;-0,21653493439474167;0,43665883358256785;4,7303689687795645;40,2233954893643;10,040589617603077
12:26:49.979;0;Mov;1;19651;9,84;0;0;0;0,37684255500961333;-0,09929502541142765;0,38760947919209876;5,3102206488235115;42,93954283272805;11,566515091402936
12:26:49.979;0;Mov;1;19652;9,84;0;0;1,0204657601397749;0,31104464857936337;-0,23806879766132846;1,0204657601397749;10,345774712363049;45,44206060975982;13,550218207342754
12:26:49.979;0;Mov;1;19653;9,84;0;0,635248914208655;0,6938688314462722;0,635248914208655;-0,0598162785729545;0,6938688314462722;13,000885036774804;53,68205816827906;15,625476851710562
12:26:49.980;0;Mov;1;19654;9,84;0;1,5396710819956054;0,6986541575746941;1,5396710819956054;0,056227302603658026;0,6986541575746941;15,137180700094607;58,59553819391461;17,303994872890406
12:26:49.980;0;Mov;1;19655;9,84;0;0,8900662490081485;0;0,8900662490081485;-0,1387737722499008;0,47494126379055146;21,546067690054016;62,86812952055421;20,172734763634143
12:26:49.988;0;Wrist;1;419;9,96;-2,4668232806634722;18,788293099765006;6,46494329279458;18,788293099765006;-2,4668232806634722;6,46494329279458;-173,34513382366404;142,6435132908109;-115,75670644245736
12:26:49.988;0;Wrist;1;420;9,96;6,374022930845057;10,68079451124607;-1,1389020155568101;10,68079451124607;6,374022930845057;-1,1389020155568101;-125,85833307901243;263,1305887020478;-127,23166600543229
12:26:49.988;0;Wrist;1;421;9,96;5,71843623157445;-8,836061243018891;-8,441273804437392;-8,836061243018891;5,71843623157445;-8,441273804437392;-104,00708029419843;373,2413708914457;-125,58366649372844
12:26:49.988;0;Wrist;1;422;9,96;7,991454817346721;-18,510746330149235;14,471950628681295;-18,510746330149235;7,991454817346721;14,471950628681295;-76,99819940794092;367,93115024262215;-64,33301797540209
12:26:49.988;0;Wrist;1;423;9,96;-5,790215765861995;-11,616321298867764;25,412348933378095;-11,616321298867764;-5,790215765861995;25,412348933378095;-40,10132145146031;283,120212408826;2,044740134891812
12:26:50.012;0;Mov;1;19656;9,84;0;0,937919271866512;1,3135655251472518;0,937919271866512;-0,10408032918742562;1,3135655251472518;27,008880886257515;69,79583117160558;28,77895443586535
12:26:50.012;0;Mov;1;19657;9,84;0;0,9881649577890865;1,4008972203360088;0,9881649577890865;-0,28472550388920254;1,4008972203360088;27,436140018921474;83,95641956846828;34,57747123630482
12:26:50.012;0;Mov;1;19658;9,84;-0,9163854235015412;1,577953452597125;2,858021933271279;1,577953452597125;-0,9163854235015412;2,858021933271279;23,46873378704184;106,02130191961425;39,49095126194037
12:26:50.012;0;Mov;1;19659;9,84;-1,0001281538972138;4,26968586916715;5,18008972441786;4,26968586916715;-1,0001281538972138;5,18008972441786;23,651844843897823;142,91817987609485;47,02902310251167
12:26:50.013;0;Mov;1;19660;9,84;-1,343473664433729;5,13702190847499;7,045161194952239;5,13702190847499;-1,343473664433729;7,045161194952239;23,04147465437788;198,9196447645497;52,2171697134312
12:26:50.049;0;Wrist;1;424;9,97;-12,383166562395093;-3,7696219710379344;15,3871396908475;-3,7696219710379344;-12,383166562395093;15,3871396908475;-20,599993896298106;226,44734031189915;-4,699850459303567
12:26:50.050;0;Wrist;1;425;9,97;1,0719076881847591;-6,158684327982422;15,131126590777306;-6,158684327982422;1,0719076881847591;15,131126590777306;-30,549027985473188;217,07815790276803;-27,649769585253456
12:26:50.050;0;Wrist;1;426;9,97;11,12822065645314;-5,938560041352581;7,600256641590625;-5,938560041352581;11,12822065645314;7,600256641590625;-28,2601397747734;179,5709097567675;-16,3274025696585
12:26:50.050;0;Wrist;1;427;9,97;0;-3,7696219710379344;6,80589608066042;-3,7696219710379344;0,0705832102062479;6,80589608066042;-23,13303018280587;146,4583269753105;11,383404034546952
12:26:50.050;0;Wrist;1;428;9,97;-7,819184030426954;-2,4751977504043703;5,2458876308481095;-2,4751977504043703;-7,819184030426954;5,2458876308481095;-19,5623645741142;118,01507614368114;7,080294198431349
12:26:50.071;0;Mov;1;19661;9,72;-0,7620594009407331;3,6739159253212073;9,254775193029573;3,6739159253212073;-0,7620594009407331;9,254775193029573;20,599993896298106;282,387768181402;56,94753868221076
12:26:50.071;0;Mov;1;19662;9,72;-2,09117714659566;2,1450117973113194;9,643581003753777;2,1450117973113194;-2,09117714659566;9,643581003753777;14,709921567430646;388,53114413892024;67,14072084719382
12:26:50.071;0;Mov;1;19663;9,72;-3,00158100184637;3,403546250801111;12,241999382000182;3,403546250801111;-3,00158100184637;12,241999382000182;16,663106173894466;484,87807855464337;83,55967894528031
12:26:50.071;0;Mov;1;19664;9,72;-2,4668232806634722;4,178765507217627;13,44550347911008;4,178765507217627;-2,4668232806634722;13,44550347911008;26,581621753593556;583,9716788232063;101,0467848750267
12:26:50.071;0;Mov;1;19665;9,72;0;4,943217452009644;12,420252273628956;4,943217452009644;-0,0933133975541322;12,420252273628956;41,53569139683218;666,6463209936827;114,20026245918149
12:26:50.110;0;Wrist;1;429;9,96;1,780132498016297;-2,554155095065157;3,057808256019776;-2,554155095065157;1,780132498016297;3,057808256019776;-6,775109103671377;100,16174810022278;1,3428144169438765
12:26:50.110;0;Wrist;1;430;9,96;3,246827743995483;-2,525443376720481;3,3975646229438152;-2,525443376720481;3,246827743995483;3,3975646229438152;-12,26844080935087;77,82219916379285;6,134220404675435
12:26:50.110;0;Wrist;1;431;9,96;-1,5659901968825343;-1,2023071993163854;3,043452396847438;-1,2023071993163854;-1,5659901968825343;3,043452396847438;-19,531846064638202;53,04116946928312;4,119998779259621
12:26:50.110;0;Wrist;1;432;9,96;-0,6783166109385967;-0,9247597144230476;2,2502884952848903;-0,9247597144230476;-0,6783166109385967;2,2502884952848903;-15,10666219061861;40,2539139988403;1,281777397991882
12:26:50.111;0;Wrist;1;433;9,96;0;-1,043195969840083;1,8112369390316476;-1,043195969840083;0,08613544561553926;1,8112369390316476;-10,956144901882992;29,297769096957303;2,075258644367809
12:26:50.131;0;Mov;1;19666;9,95;-1,2549455483031708;5,681350043488876;9,882846118045595;5,681350043488876;-1,2549455483031708;9,882846118045595;24,170659504989775;724,7535630359813;121,61626026184881
12:26:50.131;0;Mov;1;19667;9,95;-2,6701986278115175;6,546293717764824;7,040375988036744;6,546293717764824;-2,6701986278115175;7,040375988036744;-9,826960051271096;763,7562181463057;141,08706930753502
12:26:50.131;0;Mov;1;19668;9,95;3,149925277336955;-15,860885189367352;16,382482757042148;-15,860885189367352;3,149925277336955;16,382482757042148;-72,23731192968535;668,7215796380505;182,50068666646322
12:26:50.131;0;Mov;1;19669;9,95;-4,194317548905912;-7,651698450422681;37,23443937498092;-7,651698450422681;-4,194317548905912;37,23443937498092;-31,830805383465073;304,9104281746879;215,88793603320414
12:26:50.131;0;Mov;1;19670;9,95;-6,674300267799921;5,524631775109103;37,4784882656331;5,524631775109103;-6,674300267799921;37,4784882656331;-0,18311105685598317;148,8387707144383;202,49031037324136
12:26:50.138;0;Wrist;1;434;9,96;0;0;1,3721855019913327;-0,48331555471205784;-0,4199102815427869;1,3721855019913327;-9,949034089175084;18,738364818262276;3,5096285897396773
12:26:50.138;0;Wrist;1;435;9,96;0;0;0,6029481118579668;-0,20337534714804528;0,040675070919770656;0,6029481118579668;-6,591998046815394;11,658070619830928;3,967406231879635
12:26:50.138;0;Wrist;1;436;9,96;0;0;0;0,07776116214484084;-0,06340525826765496;0,22251656225203711;-5,981627857295449;6,40888698995941;3,936887722403638
12:26:50.138;0;Wrist;1;437;9,96;0;0;0;0,3816278513348033;-0,15552232428968168;-0,14954069643238624;-6,225775933103427;4,272591326639607;4,303109836115604
12:26:50.138;0;Wrist;1;438;9,96;0;0;0;0,39598377011360514;-0,4761375953226569;-0,007177953801294938;-4,364146855067599;3,5706656086916717;3,936887722403638
12:26:50.162;0;Mov;1;19671;9,73;-10,06349089785455;6,353685205389569;36,52142780846584;6,353685205389569;-10,06349089785455;36,52142780846584;-40,00976592303232;87,52708517715995;200,23194067201757
12:26:50.162;0;Mov;1;19672;9,73;-12,742064233832819;9,058577417828912;27,662636951811272;9,058577417828912;-12,742064233832819;27,662636951811272;-36,164433729056675;-30,671102023377177;175,72557756279184
12:26:50.162;0;Mov;1;19673;9,73;-11,800555818353832;10,551591540269174;15,439778397473068;10,551591540269174;-11,800555818353832;15,439778397473068;-18,951994384594258;-96,74367503891109;145,7869197668386
12:26:50.162;0;Mov;1;19674;9,73;-11,41414284951323;11,562486648152104;7,767742221594897;11,562486648152104;-11,41414284951323;7,767742221594897;-15,32029175695059;-123,11166722617267;120,36500137333293
12:26:50.162;0;Mov;1;19675;9,73;-11,563683545945617;12,049391346476638;4,700363074892422;12,049391346476638;-11,563683545945617;4,700363074892422;-16,998809778130436;-142,12469862971892;93,75286111026338
12:26:50.197;0;Wrist;1;439;9,96;-0,6244819602229377;0,7704336918622394;-0,525186949713126;0,7704336918622394;-0,6244819602229377;-0,525186949713126;-1,73955504013184;4,272591326639607;4,089480269783624
12:26:50.197;0;Wrist;1;440;9,96;0;0,6185003323656423;0;0,6185003323656423;-0,44383679297196876;-0,28831446868228705;2,044740134891812;8,880886257515183;4,1810357982116155
12:26:50.197;0;Wrist;1;441;9,96;0;0;0;0,33257852674756616;-0,02990813928647725;-0,06460158234895245;5,21866512039552;12,72621845149083;3,5706656086916717
12:26:50.197;0;Wrist;1;442;9,96;0;0;0;0,27635121296769616;0,12202521275931195;-0,0717795342875454;6,4394054994354075;14,03851435895871;2,563554795983764
12:26:50.197;0;Wrist;1;443;9,96;0;0;0;0,1770561875562685;0,290707131746498;-0,11006195704472106;5,859553819391461;14,465773491622668;1,2512588885158848
12:26:50.220;0;Mov;1;19676;9,95;-12,085281113620411;11,740739539780877;4,120145172734763;11,740739539780877;-12,085281113620411;4,120145172734763;-24,384289071321756;-154,2100283822138;62,47138889736625
12:26:50.220;0;Mov;1;19677;9,95;-12,46930124057741;11,122239028595843;5,041315862758263;11,122239028595843;-12,46930124057741;5,041315862758263;-34,02813806573687;-163,73180333872494;27,92443617053743
12:26:50.220;0;Mov;1;19678;9,95;-12,384362506485184;10,266866245002594;6,601324789422285;10,266866245002594;-12,384362506485184;6,601324789422285;-36,89687795648061;-178,2280953398236;-6,988738670003357
12:26:50.221;0;Mov;1;19679;9,95;-11,451228560747094;9,37321085238197;7,926853331858272;9,37321085238197;-11,451228560747094;7,926853331858272;-35,37095248268074;-197,51579332865384;-40,83376567888424
12:26:50.221;0;Mov;1;19680;9,95;-9,907968573564867;8,492715613269448;8,696090960417493;8,492715613269448;-9,907968573564867;8,696090960417493;-34,54695272682882;-220,7708975493637;-71,35227515488144
12:26:50.228;0;Wrist;1;444;9,67;0;0;0;0,07297585836884289;0,46776330440115055;-0,07776116214484084;3,357036042359691;14,191106906338694;-0,12207403790398877
12:26:50.228;0;Wrist;1;445;9,67;0;0;0;0,11484726082071901;0,354112375112537;-0,10527665326872311;-0,18311105685598317;12,970366527298808;-1,2207403790398876
12:26:50.228;0;Wrist;1;446;9,67;0;0;0;0,09690236979802469;0,11365092928861355;0,02273018548518231;-2,7466658528397474;12,329477828302865;-2,0142216254158147
12:26:50.228;0;Wrist;1;447;9,67;0;0;0;0,0598162785729545;-0,021533861403884816;0,05503097852236053;-4,24207281716361;12,207403790398876;-2,075258644367809
12:26:50.228;0;Wrist;1;448;9,67;0;0;0;-0,03708609495047418;-0,21892758255733666;0,3469344157231361;-4,608294930875576;11,474959562974945;-1,2512588885158848
12:26:50.279;0;Mov;1;19681;9,96;-8,224738303781244;7,535655156102176;8,699679746391187;7,535655156102176;-8,224738303781244;8,699679746391187;-36,37806329538866;-246,07074190496536;-96,10278633991516
12:26:50.280;0;Mov;1;19682;9,96;-6,686263523514511;6,509207529679251;7,808417195654164;6,509207529679251;-6,686263523514511;7,808417195654164;-39,33835871456038;-270,5771050141911;-113,68144779808954
12:26:50.280;0;Mov;1;19683;9,96;-5,2422988448744166;5,518650147251808;6,435035153508102;5,518650147251808;-5,2422988448744166;6,435035153508102;-41,41361735892819;-290,47517319254126;-124,11877803888058
