Frecuencia (Hz);100
time;timespan;canal;id;sample;gap;accX;accY;accZ;rawAccX;rawAccY;rawAccZ;rawGirX;rawGirY;rawGirZ
12:25:25.138;0;Mov;1;17156;11,18;0;0;0;0,0011963255947428648;-0,01794488357188635;0,03708609495047418;0,12207403790398877;-0,36622211371196634;-0,030518509475997192
12:25:25.138;0;Mov;1;17157;11,18;0;0;0;0;-0,00598162785729545;0,03230079117447623;0,18311105685598317;-0,4272591326639607;0,061037018951994385
12:25:25.138;0;Mov;1;17158;11,18;0;0;0;0,00837427881394343;-0,0023926511894857296;0,014355907602589877;0,18311105685598317;-0,4882961516159551;0,09155552842799158
12:25:25.138;0;Mov;1;17159;11,18;0;0;0;-0,009570604757942918;-0,009570604757942918;0,003588976900647469;0,18311105685598317;-0,5188146610919523;0
12:25:25.138;0;Mov;1;17160;11,18;0;0;0;0;-0,0239265114291818;-0,0023926511894857296;0,27466658528397475;-0,45777764213995786;0
12:25:25.138;0;Wrist;1;63465;11,04;0;0;0;0,007177953801294938;0,00598162785729545;-0,0023926511894857296;-0,12207403790398877;-0,12207403790398877;-0,030518509475997192
12:25:25.140;0;Wrist;1;63466;11,04;0;0;0;0,013159581658590389;-0,009570604757942918;-0,003588976900647469;-0,12207403790398877;-0,09155552842799158;0
12:25:25.140;0;Wrist;1;63467;11,04;0;0;0;0,00837427881394343;-0,00837427881394343;-0,0023926511894857296;-0,030518509475997192;0;-0,09155552842799158
12:25:25.140;0;Wrist;1;63468;11,04;0;0;0;-0,0011963255947428648;-0,0119632557145909;0,00837427881394343;0,061037018951994385;-0,061037018951994385;-0,12207403790398877
12:25:25.140;0;Wrist;1;63469;11,04;0;0;0;-0,0011963255947428648;-0,010766930701942408;-0,0023926511894857296;0,061037018951994385;-0,15259254737998595;0
12:25:25.142;0;Wrist;1;63470;9,86;0;0;0;0,003588976900647469;0,010766930701942408;-0,0119632557145909;0,12207403790398877;-0,15259254737998595;-0,030518509475997192
12:25:25.142;0;Wrist;1;63471;9,86;0;0;0;-0,00837427881394343;-0,009570604757942918;-0,003588976900647469;0,12207403790398877;-0,21362956633198035;0,09155552842799158
12:25:25.142;0;Wrist;1;63472;9,86;0;0;0;-0,01794488357188635;-0,013159581658590389;0,01794488357188635;0,21362956633198035;-0,4272591326639607;0,21362956633198035
12:25:25.142;0;Wrist;1;63473;9,86;0;0;0;0;-0,00837427881394343;-0,0023926511894857296;0,21362956633198035;-0,3967406231879635;0,18311105685598317
12:25:25.142;0;Wrist;1;63474;9,86;0;0;0;0,010766930701942408;-0,0023926511894857296;-0,031104465230476736;0,27466658528397475;-0,3357036042359691;0,21362956633198035
12:25:25.146;0;Mov;1;17161;10,12;0;0;0;0,003588976900647469;0,009570604757942918;0,003588976900647469;0,18311105685598317;-0,6103701895199438;0
12:25:25.146;0;Mov;1;17162;10,12;0;0;0;0,0011963255947428648;0,010766930701942408;0;0,24414807580797754;-0,640888698995941;-0,030518509475997192
12:25:25.146;0;Mov;1;17163;10,12;0;0;0;0,0023926511894857296;-0,01674855762788686;0,015552232615238368;0,24414807580797754;-0,6714072084719382;-0,09155552842799158
12:25:25.146;0;Mov;1;17164;10,12;0;0;0;-0,01674855762788686;-0,009570604757942918;0,028711815205179753;0,18311105685598317;-0,793481246375927;-0,061037018951994385
12:25:25.146;0;Mov;1;17165;10,12;0;0;0;0,0023926511894857296;0,0119632557145909;0,00837427881394343;0,15259254737998595;-0,8545182653279214;-0,12207403790398877
12:25:25.148;0;Mov;1;17166;9,16;0;0;0;-0,0011963255947428648;-0,013159581658590389;0,03349711525577372;0,09155552842799158;-0,7324442274239327;-0,18311105685598317
12:25:25.148;0;Mov;1;17167;9,16;0;0;0;-0,004785302378971459;-0,003588976900647469;-0,0023926511894857296;0,061037018951994385;-0,8545182653279214;-0,15259254737998595
12:25:25.148;0;Mov;1;17168;9,16;0;0;0;-0,025122837373181287;-0,003588976900647469;0,015552232615238368;0,21362956633198035;-0,9765923032319102;-0,15259254737998595
12:25:25.148;0;Mov;1;17169;9,16;0;0;0;-0,003588976900647469;0;0,007177953801294938;0,18311105685598317;-1,0071108127079074;-0,3051850947599719
12:25:25.149;0;Mov;1;17170;9,16;0;0;0;-0,0023926511894857296;-0,00598162785729545;0,00598162785729545;0,21362956633198035;-1,0681478316599018;-0,24414807580797754
12:25:25.183;0;Wrist;1;63475;9,71;0;0;0;0,027515489261180266;0,0119632557145909;-0,014355907602589877;0,18311105685598317;-0,3967406231879635;0,21362956633198035
12:25:25.183;0;Wrist;1;63476;9,71;0;0;0;0;-0,014355907602589877;0,020337535459885328;0,27466658528397475;-0,36622211371196634;0,21362956633198035
12:25:25.183;0;Wrist;1;63477;9,71;0;0;0;-0,013159581658590389;-0,0346934430624752;-0,00837427881394343;0,45777764213995786;-0,3051850947599719;0,3357036042359691
12:25:25.183;0;Wrist;1;63478;9,71;0;0;0;0,009570604757942918;-0,00598162785729545;-0,00837427881394343;0,6714072084719382;-0,4272591326639607;0,3967406231879635
12:25:25.184;0;Wrist;1;63479;9,71;0;0;0;0,021533861403884816;-0,013159581658590389;0;0,640888698995941;-0,5188146610919523;0,4882961516159551
12:25:25.200;0;Mov;1;17171;9,26;0;0;0;-0,013159581658590389;0,0023926511894857296;0,004785302378971459;0,09155552842799158;-1,3122959074678793;-0,3357036042359691
12:25:25.200;0;Mov;1;17172;9,26;0;0;0;-0,0119632557145909;0,007177953801294938;0,021533861403884816;0;-1,3733329264198737;-0,3357036042359691
12:25:25.200;0;Mov;1;17173;9,26;0;0;0;0,0023926511894857296;-0,0011963255947428648;0,0239265114291818;0,061037018951994385;-1,3428144169438765;-0,5493331705679495
12:25:25.200;0;Mov;1;17174;9,26;0;0;0;-0,0023926511894857296;0,009570604757942918;-0,0011963255947428648;0,15259254737998595;-1,403851435895871;-0,36622211371196634
12:25:25.200;0;Mov;1;17175;9,26;0;0;0;0,0119632557145909;-0,003588976900647469;0,004785302378971459;0,18311105685598317;-1,403851435895871;-0,4272591326639607
12:25:25.235;0;Wrist;1;63480;9,75;0;0;0;-0,010766930701942408;-0,0011963255947428648;-0,003588976900647469;0,640888698995941;-0,4882961516159551;0,5493331705679495
12:25:25.235;0;Wrist;1;63481;9,75;0;0;0;-0,010766930701942408;-0,0011963255947428648;0,010766930701942408;0,4882961516159551;-0,640888698995941;0,6103701895199438
12:25:25.235;0;Wrist;1;63482;9,75;0;0;0;0,007177953801294938;0,014355907602589877;-0,007177953801294938;0,5798516800439466;-0,793481246375927;0,6714072084719382
12:25:25.235;0;Wrist;1;63483;9,75;0;0;0;0,014355907602589877;0,00598162785729545;-0,015552232615238368;0,4882961516159551;-0,793481246375927;0,6714072084719382
12:25:25.235;0;Wrist;1;63484;9,75;0;0;0;0,003588976900647469;-0,019141209515885837;-0,02273018548518231;0,3967406231879635;-0,8545182653279214;0,6103701895199438
12:25:25.258;0;Mov;1;17176;9,47;0;0;0;0,003588976900647469;0,004785302378971459;0,007177953801294938;0,27466658528397475;-1,6479995117038484;-0,45777764213995786
12:25:25.259;0;Mov;1;17177;9,47;0;0;0;0,027515489261180266;-0,02273018548518231;0,0119632557145909;0,18311105685598317;-1,7700735496078372;-0,45777764213995786
12:25:25.259;0;Mov;1;17178;9,47;0;0;0;0,026319163317180778;-0,009570604757942918;0,004785302378971459;0,27466658528397475;-1,6174810022278512;-0,45777764213995786
12:25:25.259;0;Mov;1;17179;9,47;0;0;0;0,013159581658590389;-0,020337535459885328;0;0,3967406231879635;-1,4648884548478653;-0,36622211371196634
12:25:25.259;0;Mov;1;17180;9,47;0;0;0;0,027515489261180266;-0,013159581658590389;0,013159581658590389;0,45777764213995786;-1,5564439832758568;-0,21362956633198035
12:25:25.325;0;Wrist;1;63485;10,45;0;0;0;0,013159581658590389;-0,004785302378971459;-0,01794488357188635;0,3051850947599719;-0,8850367748039186;0,6103701895199438
12:25:25.326;0;Wrist;1;63486;10,45;0;0;0;0,027515489261180266;-0,00837427881394343;-0,014355907602589877;0,3051850947599719;-1,0071108127079074;0,45777764213995786
12:25:25.326;0;Wrist;1;63487;10,45;0;0;0;0,027515489261180266;-0,007177953801294938;-0,013159581658590389;0,36622211371196634;-0,793481246375927;0,36622211371196634
12:25:25.326;0;Wrist;1;63488;10,45;0;0;0;0,0023926511894857296;-0,013159581658590389;-0,01674855762788686;0,5188146610919523;-0,5798516800439466;0,6103701895199438
12:25:25.326;0;Wrist;1;63489;10,45;0;0;0;0,0119632557145909;-0,026319163317180778;-0,021533861403884816;0,4882961516159551;-0,7629627368999298;0,5493331705679495
12:25:25.327;0;Wrist;1;63490;9,66;0;0;0;0,02273018548518231;-0,010766930701942408;-0,007177953801294938;0,6103701895199438;-0,8545182653279214;0,6103701895199438
12:25:25.327;0;Wrist;1;63491;9,66;0;0;0;0,009570604757942918;-0,02273018548518231;-0,014355907602589877;0,6103701895199438;-0,793481246375927;0,7324442274239327
12:25:25.327;0;Wrist;1;63492;9,66;0;0;0;0,013159581658590389;-0,004785302378971459;-0,020337535459885328;0,5798516800439466;-0,793481246375927;0,7324442274239327
12:25:25.327;0;Wrist;1;63493;9,66;0;0;0;0,0346934430624752;0,00598162785729545;-0,02273018548518231;0,6714072084719382;-0,8850367748039186;0,7629627368999298
12:25:25.327;0;Wrist;1;63494;9,66;0;0;0;0,01674855762788686;0,010766930701942408;-0,02273018548518231;0,5188146610919523;-0,7019257179479355;0,7019257179479355
12:25:25.383;0;Mov;1;17181;10,65;0;0;0;0,01794488357188635;0,0119632557145909;0,003588976900647469;0,3357036042359691;-1,5564439832758568;-0,21362956633198035
12:25:25.383;0;Mov;1;17182;10,65;0;0;0;0,03230079117447623;-0,010766930701942408;0;0,27466658528397475;-1,4954069643238623;-0,24414807580797754
12:25:25.383;0;Mov;1;17183;10,65;0;0;0;0,00837427881394343;-0,01674855762788686;-0,009570604757942918;0,3051850947599719;-1,1291848506118962;-0,21362956633198035
12:25:25.383;0;Mov;1;17184;10,65;0;0;0;0,026319163317180778;0,02990813928647725;0,004785302378971459;0,3051850947599719;-1,0681478316599018;-0,18311105685598317
12:25:25.383;0;Mov;1;17185;10,65;0;0;0;-0,004785302378971459;0,003588976900647469;0,0011963255947428648;0,12207403790398877;-0,9155552842799157;-0,18311105685598317
12:25:25.385;0;Mov;1;17186;9,92;0;0;0;0,007177953801294938;0,00598162785729545;-0,009570604757942918;0,15259254737998595;-0,9155552842799157;-0,12207403790398877
12:25:25.385;0;Mov;1;17187;9,92;0;0;0;0,025122837373181287;-0,00837427881394343;-0,015552232615238368;0,15259254737998595;-0,9460737937559129;-0,12207403790398877
12:25:25.385;0;Mov;1;17188;9,92;0;0;0;0,028711815205179753;-0,007177953801294938;-0,031104465230476736;0,18311105685598317;-0,8545182653279214;-0,030518509475997192
12:25:25.385;0;Mov;1;17189;9,92;0;0;0;0,03230079117447623;0,027515489261180266;-0,015552232615238368;0,18311105685598317;-0,6714072084719382;-0,09155552842799158
12:25:25.385;0;Mov;1;17190;9,92;0;0;0;0,010766930701942408;-0,01674855762788686;-0,01674855762788686;0;-0,6103701895199438;-0,09155552842799158
12:25:25.386;0;Wrist;1;63495;9,82;0;0;0;0,013159581658590389;0,02273018548518231;-0,015552232615238368;0,3967406231879635;-0,5798516800439466;0,5493331705679495
12:25:25.386;0;Wrist;1;63496;9,82;0;0;0;0,0358897671437727;0,010766930701942408;-0,0346934430624752;0,27466658528397475;-0,5798516800439466;0,5493331705679495
12:25:25.386;0;Wrist;1;63497;9,82;0;0;0;0,038282419031771674;0,0023926511894857296;-0,04426404688906713;0,12207403790398877;-0,5493331705679495;0,3051850947599719
12:25:25.386;0;Wrist;1;63498;9,82;0;0;0;0,020337535459885328;0,0119632557145909;-0,02273018548518231;0,15259254737998595;-0,3051850947599719;0,24414807580797754
12:25:25.386;0;Wrist;1;63499;9,82;0;0;0;0,027515489261180266;0,014355907602589877;-0,00598162785729545;0,030518509475997192;-0,12207403790398877;0,18311105685598317
12:25:25.408;0;Mov;1;17191;9,57;0;0;0;0,04904935066506508;0,028711815205179753;-0,013159581658590389;0;-0,640888698995941;-0,061037018951994385
12:25:25.408;0;Mov;1;17192;9,57;0;0;0;0,04306772280776963;-0,02990813928647725;-0,052638326634361556;0;-0,3051850947599719;-0,09155552842799158
12:25:25.409;0;Mov;1;17193;9,57;0;0;0;-0,02273018548518231;0,00837427881394343;0,0717795342875454;-0,030518509475997192;-0,09155552842799158;0
12:25:25.409;0;Mov;1;17194;9,57;0;0;0;-0,01794488357188635;0,014355907602589877;0,01674855762788686;-0,09155552842799158;-0,09155552842799158;0,061037018951994385
12:25:25.409;0;Mov;1;17195;9,57;0;0;0;0,03708609495047418;0,02273018548518231;0,019141209515885837;-0,061037018951994385;-0,15259254737998595;0
12:25:25.416;0;Wrist;1;63500;9,56;0;0;0;0,007177953801294938;0,007177953801294938;0;0;-0,12207403790398877;0,27466658528397475
12:25:25.416;0;Wrist;1;63501;9,56;0;0;0;-0,014355907602589877;0,013159581658590389;0,004785302378971459;-0,061037018951994385;-0,061037018951994385;0,21362956633198035
12:25:25.416;0;Wrist;1;63502;9,56;0;0;0;0,009570604757942918;-0,015552232615238368;-0,0011963255947428648;-0,3051850947599719;-0,15259254737998595;0,12207403790398877
12:25:25.416;0;Wrist;1;63503;9,56;0;0;0;0,01674855762788686;-0,01674855762788686;-0,019141209515885837;-0,12207403790398877;-0,24414807580797754;0,27466658528397475
12:25:25.416;0;Wrist;1;63504;9,56;0;0;0;0,007177953801294938;0,003588976900647469;-0,0239265114291818;0;-0,3357036042359691;0,3967406231879635
12:25:25.441;0;Mov;1;17196;9,38;0;0;0;-0,028711815205179753;-0,00598162785729545;0,007177953801294938;-0,21362956633198035;-0,061037018951994385;-0,15259254737998595
12:25:25.441;0;Mov;1;17197;9,38;0;0;0;-0,004785302378971459;0,03947874311306917;0,019141209515885837;-0,27466658528397475;-0,12207403790398877;-0,15259254737998595
12:25:25.441;0;Mov;1;17198;9,38;0;0;0;-0,019141209515885837;-0,01794488357188635;0,00837427881394343;-0,4272591326639607;-0,12207403790398877;-0,21362956633198035
12:25:25.441;0;Mov;1;17199;9,38;0;0;0;-0,004785302378971459;0,013159581658590389;0,014355907602589877;-0,45777764213995786;-0,24414807580797754;-0,3357036042359691
12:25:25.441;0;Mov;1;17200;9,38;0;0;0;0,0023926511894857296;-0,010766930701942408;0,00837427881394343;-0,3357036042359691;-0,36622211371196634;-0,45777764213995786
12:25:25.476;0;Wrist;1;63505;9,72;0;0;0;-0,0023926511894857296;-0,00598162785729545;0,007177953801294938;0,030518509475997192;-0,3051850947599719;0,4272591326639607
12:25:25.476;0;Wrist;1;63506;9,72;0;0;0;0,015552232615238368;-0,0023926511894857296;-0,014355907602589877;0;-0,3967406231879635;0,4272591326639607
12:25:25.476;0;Wrist;1;63507;9,72;0;0;0;0,019141209515885837;0,019141209515885837;-0,03708609495047418;-0,030518509475997192;-0,4272591326639607;0,4272591326639607
12:25:25.476;0;Wrist;1;63508;9,72;0;0;0;0,014355907602589877;0,01674855762788686;-0,04426404688906713;-0,21362956633198035;-0,24414807580797754;0,24414807580797754
12:25:25.476;0;Wrist;1;63509;9,72;0;0;0;0,03230079117447623;-0,0011963255947428648;-0,04546037097036462;-0,4882961516159551;-0,18311105685598317;0
12:25:25.500;0;Mov;1;17201;9,52;0;0;0;0;-0,0358897671437727;-0,013159581658590389;-0,45777764213995786;-0,3967406231879635;-0,45777764213995786
12:25:25.500;0;Mov;1;17202;9,52;0;0;0;-0,009570604757942918;0,02273018548518231;0,009570604757942918;-0,3967406231879635;-0,5188146610919523;-0,27466658528397475
12:25:25.500;0;Mov;1;17203;9,52;0;0;0;0,014355907602589877;-0,020337535459885328;-0,0011963255947428648;-0,36622211371196634;-0,6103701895199438;-0,3357036042359691
12:25:25.500;0;Mov;1;17204;9,52;0;0;0;-0,00837427881394343;0,007177953801294938;0,01674855762788686;-0,3357036042359691;-0,5798516800439466;-0,27466658528397475
12:25:25.500;0;Mov;1;17205;9,52;0;0;0;0,0119632557145909;0,007177953801294938;0,013159581658590389;-0,3967406231879635;-0,5493331705679495;-0,18311105685598317
12:25:25.506;0;Wrist;1;63510;9,49;0;0;0;0,009570604757942918;-0,004785302378971459;-0,020337535459885328;-0,5188146610919523;-0,061037018951994385;0
12:25:25.506;0;Wrist;1;63511;9,49;0;0;0;0,013159581658590389;-0,00837427881394343;-0,0011963255947428648;-0,4882961516159551;-0,030518509475997192;-0,030518509475997192
12:25:25.506;0;Wrist;1;63512;9,49;0;0;0;0,0239265114291818;0,003588976900647469;-0,01674855762788686;-0,3967406231879635;0;0
12:25:25.506;0;Wrist;1;63513;9,49;0;0;0;0,031104465230476736;-0,010766930701942408;-0,040675070919770656;-0,3051850947599719;0,030518509475997192;-0,09155552842799158
12:25:25.506;0;Wrist;1;63514;9,49;0;0;0;0,027515489261180266;-0,004785302378971459;-0,03349711525577372;-0,24414807580797754;0,24414807580797754;-0,15259254737998595
12:25:25.561;0;Mov;1;17206;9,67;0;0;0;-0,004785302378971459;-0,038282419031771674;-0,007177953801294938;-0,3357036042359691;-0,4272591326639607;-0,27466658528397475
12:25:25.561;0;Mov;1;17207;9,67;0;0;0;0,020337535459885328;0,00598162785729545;-0,0011963255947428648;-0,3051850947599719;-0,45777764213995786;-0,3051850947599719
12:25:25.561;0;Mov;1;17208;9,67;0;0;0;0;-0,0119632557145909;-0,007177953801294938;-0,12207403790398877;-0,3967406231879635;-0,27466658528397475
12:25:25.561;0;Mov;1;17209;9,67;0;0;0;0,007177953801294938;-0,04187139500106815;-0,021533861403884816;0;-0,3967406231879635;-0,24414807580797754
12:25:25.561;0;Mov;1;17210;9,67;0;0;0;0,027515489261180266;-0,015552232615238368;-0,03349711525577372;0;-0,36622211371196634;-0,18311105685598317
12:25:25.566;0;Wrist;1;63515;9,64;0;0;0;0,0119632557145909;-0,004785302378971459;-0,00837427881394343;-0,18311105685598317;0,4272591326639607;-0,061037018951994385
12:25:25.566;0;Wrist;1;63516;9,64;0;0;0;0;-0,01794488357188635;0,0011963255947428648;-0,18311105685598317;0,45777764213995786;-0,061037018951994385
12:25:25.566;0;Wrist;1;63517;9,64;0;0;0;0,0119632557145909;-0,007177953801294938;-0,00598162785729545;-0,061037018951994385;0,3967406231879635;-0,12207403790398877
12:25:25.566;0;Wrist;1;63518;9,64;0;0;0;0,014355907602589877;-0,02273018548518231;-0,0119632557145909;0;0,5493331705679495;-0,18311105685598317
12:25:25.566;0;Wrist;1;63519;9,64;0;0;0;0;-0,007177953801294938;-0,003588976900647469;0;0,7019257179479355;-0,15259254737998595
12:25:25.588;0;Mov;1;17211;9,45;0;0;0;0,01794488357188635;-0,01674855762788686;-0,025122837373181287;0;-0,21362956633198035;-0,15259254737998595
12:25:25.588;0;Mov;1;17212;9,45;0;0;0;0,020337535459885328;-0,019141209515885837;-0,007177953801294938;0,15259254737998595;-0,09155552842799158;0
12:25:25.588;0;Mov;1;17213;9,45;0;0;0;0,00598162785729545;-0,021533861403884816;0,009570604757942918;0,18311105685598317;0,09155552842799158;0,030518509475997192
12:25:25.589;0;Mov;1;17214;9,45;0;0;0;0,0011963255947428648;0,00837427881394343;0,031104465230476736;0,3357036042359691;0,12207403790398877;0,12207403790398877
12:25:25.589;0;Mov;1;17215;9,45;0;0;0;-0,020337535459885328;-0,01794488357188635;0,009570604757942918;0,4882961516159551;0,09155552842799158;0,15259254737998595
12:25:25.626;0;Wrist;1;63520;9,77;0;0;0;-0,03708609495047418;-0,01794488357188635;0,020337535459885328;0,061037018951994385;0,640888698995941;-0,15259254737998595
12:25:25.627;0;Wrist;1;63521;9,77;0;0;0;-0,00598162785729545;-0,007177953801294938;0,015552232615238368;0,21362956633198035;0,6714072084719382;-0,12207403790398877
12:25:25.627;0;Wrist;1;63522;9,77;0;0;0;-0,0023926511894857296;-0,0011963255947428648;0,003588976900647469;0,36622211371196634;0,4882961516159551;-0,061037018951994385
12:25:25.627;0;Wrist;1;63523;9,77;0;0;0;-0,014355907602589877;-0,010766930701942408;0;0,45777764213995786;0,3967406231879635;0
12:25:25.627;0;Wrist;1;63524;9,77;0;0;0;-0,019141209515885837;-0,0011963255947428648;0,00598162785729545;0,6103701895199438;0,24414807580797754;0,12207403790398877
12:25:25.650;0;Mov;1;17216;9,59;0;0;0;0,0119632557145909;0,0023926511894857296;0,013159581658590389;0,3967406231879635;0,15259254737998595;0,18311105685598317
12:25:25.650;0;Mov;1;17217;9,59;0;0;0;0,03349711525577372;-0,009570604757942918;-0,004785302378971459;0,3357036042359691;0;0,12207403790398877
12:25:25.650;0;Mov;1;17218;9,59;0;0;0;-0,0119632557145909;-0,01794488357188635;0,00837427881394343;0,3967406231879635;0;0,21362956633198035
12:25:25.650;0;Mov;1;17219;9,59;0;0;0;-0,015552232615238368;-0,0346934430624752;0,015552232615238368;0,4272591326639607;-0,12207403790398877;0,36622211371196634
12:25:25.650;0;Mov;1;17220;9,59;0;0;0;0,007177953801294938;0,028711815205179753;0,0023926511894857296;0,45777764213995786;-0,21362956633198035;0,4272591326639607
12:25:25.656;0;Wrist;1;63525;9,57;0;0;0;-0,026319163317180778;0,013159581658590389;0,007177953801294938;0,6103701895199438;0,061037018951994385;0,15259254737998595
12:25:25.656;0;Wrist;1;63526;9,57;0;0;0;-0,015552232615238368;0;0,025122837373181287;0,7019257179479355;-0,09155552842799158;0,27466658528397475
12:25:25.656;0;Wrist;1;63527;9,57;0;0;0;0,0239265114291818;0,0011963255947428648;0,010766930701942408;0,6103701895199438;-0,12207403790398877;0,3051850947599719
12:25:25.656;0;Wrist;1;63528;9,57;0;0;0;0,00837427881394343;0,015552232615238368;-0,003588976900647469;0,5493331705679495;-0,3051850947599719;0,3051850947599719
12:25:25.656;0;Wrist;1;63529;9,57;0;0;0;-0,0011963255947428648;0,0119632557145909;-0,01674855762788686;0,3967406231879635;-0,3357036042359691;0,4272591326639607
12:25:25.707;0;Mov;1;17221;9,68;0;0;0;-0,014355907602589877;-0,01794488357188635;0,010766930701942408;0,5188146610919523;-0,21362956633198035;0,3357036042359691
12:25:25.707;0;Mov;1;17222;9,68;0;0;0;0;0,015552232615238368;0,040675070919770656;0,5493331705679495;-0,09155552842799158;0,24414807580797754
12:25:25.707;0;Mov;1;17223;9,68;0;0;0;-0,013159581658590389;-0,019141209515885837;0,02273018548518231;0,45777764213995786;-0,12207403790398877;0,18311105685598317
12:25:25.707;0;Mov;1;17224;9,68;0;0;0;-0,010766930701942408;0,0011963255947428648;0,021533861403884816;0,45777764213995786;-0,21362956633198035;0,15259254737998595
12:25:25.708;0;Mov;1;17225;9,68;0;0;0;-0,010766930701942408;-0,010766930701942408;0,003588976900647469;0,5493331705679495;-0,27466658528397475;0,21362956633198035
12:25:25.716;0;Wrist;1;63530;9,69;0;0;0;0,014355907602589877;0,0119632557145909;-0,015552232615238368;0,3967406231879635;-0,3967406231879635;0,3357036042359691
12:25:25.716;0;Wrist;1;63531;9,69;0;0;0;-0,0023926511894857296;-0,02273018548518231;0,013159581658590389;0,36622211371196634;-0,45777764213995786;0,24414807580797754
12:25:25.716;0;Wrist;1;63532;9,69;0;0;0;-0,003588976900647469;0,010766930701942408;0,026319163317180778;0,3051850947599719;-0,36622211371196634;0,4272591326639607
12:25:25.716;0;Wrist;1;63533;9,69;0;0;0;-0,00837427881394343;0,0023926511894857296;0,010766930701942408;0,4882961516159551;-0,4882961516159551;0,4882961516159551
12:25:25.716;0;Wrist;1;63534;9,69;0;0;0;0,00598162785729545;0,01674855762788686;-0,013159581658590389;0,45777764213995786;-0,640888698995941;0,5798516800439466
12:25:25.738;0;Mov;1;17226;9,53;0;0;0;-0,007177953801294938;0,015552232615238368;0,021533861403884816;0,4272591326639607;-0,27466658528397475;0,21362956633198035
12:25:25.738;0;Mov;1;17227;9,53;0;0;0;0,0023926511894857296;0,0119632557145909;0,019141209515885837;0,3357036042359691;-0,3357036042359691;0,030518509475997192
12:25:25.738;0;Mov;1;17228;9,53;0;0;0;0,0023926511894857296;-0,013159581658590389;0,014355907602589877;0,27466658528397475;-0,4272591326639607;0,12207403790398877
12:25:25.738;0;Mov;1;17229;9,53;0;0;0;-0,0023926511894857296;0,00598162785729545;0,004785302378971459;0,15259254737998595;-0,4882961516159551;0,09155552842799158
12:25:25.738;0;Mov;1;17230;9,53;0;0;0;0,013159581658590389;0;0,021533861403884816;0,3051850947599719;-0,3051850947599719;-0,030518509475997192
12:25:25.776;0;Wrist;1;63535;9,79;0;0;0;-0,004785302378971459;0,019141209515885837;0;0,3051850947599719;-0,6714072084719382;0,45777764213995786
12:25:25.776;0;Wrist;1;63536;9,79;0;0;0;-0,020337535459885328;0,004785302378971459;0,0358897671437727;0,061037018951994385;-0,6103701895199438;0,3967406231879635
12:25:25.776;0;Wrist;1;63537;9,79;0;0;0;-0,026319163317180778;0,015552232615238368;0,05503097852236053;0;-0,640888698995941;0,4272591326639607
12:25:25.776;0;Wrist;1;63538;9,79;0;0;0;-0,03349711525577372;0,0119632557145909;0,052638326634361556;-0,12207403790398877;-0,7629627368999298;0,45777764213995786
12:25:25.776;0;Wrist;1;63539;9,79;0;0;0;-0,05144199882766007;-0,01674855762788686;0,05383465071565905;-0,15259254737998595;-1,0071108127079074;0,6103701895199438
12:25:25.798;0;Mov;1;17231;9,63;0;0;0;0;0,01674855762788686;0,026319163317180778;0,5493331705679495;-0,24414807580797754;0,09155552842799158
12:25:25.798;0;Mov;1;17232;9,63;0;0;0;0,0023926511894857296;0,02273018548518231;0,00837427881394343;0,4882961516159551;-0,45777764213995786;0,12207403790398877
12:25:25.799;0;Mov;1;17233;9,63;0;0;0;0,0023926511894857296;0,003588976900647469;-0,014355907602589877;0,21362956633198035;-0,45777764213995786;0
12:25:25.799;0;Mov;1;17234;9,63;0;0;0;0,003588976900647469;-0,003588976900647469;-0,009570604757942918;0,27466658528397475;-0,4882961516159551;0,030518509475997192
12:25:25.799;0;Mov;1;17235;9,63;0;0;0;0;0,0119632557145909;0,00598162785729545;0,3357036042359691;-0,4272591326639607;0
12:25:25.806;0;Wrist;1;63540;9,63;0;0;0;-0,05503097852236053;-0,0011963255947428648;0,04306772280776963;-0,15259254737998595;-1,3733329264198737;0,793481246375927
12:25:25.806;0;Wrist;1;63541;9,63;0;0;0;-0,015552232615238368;-0,010766930701942408;0,02990813928647725;-0,09155552842799158;-1,6174810022278512;0,9155552842799157
12:25:25.806;0;Wrist;1;63542;9,63;0;0;0;0,019141209515885837;0;-0,014355907602589877;-0,3357036042359691;-1,5564439832758568;0,8850367748039186
12:25:25.806;0;Wrist;1;63543;9,63;0;0;0;0,021533861403884816;0,007177953801294938;-0,04546037097036462;-0,3967406231879635;-1,7090365306558428;0,8545182653279214
12:25:25.806;0;Wrist;1;63544;9,63;0;0;0;0,03708609495047418;0,009570604757942918;-0,03230079117447623;-0,45777764213995786;-1,6174810022278512;0,793481246375927
12:25:25.857;0;Mov;1;17236;9,73;0;0;0;0,007177953801294938;0,026319163317180778;0,013159581658590389;0,24414807580797754;-0,3357036042359691;-0,061037018951994385
12:25:25.857;0;Mov;1;17237;9,73;0;0;0;0,009570604757942918;0,02273018548518231;-0,0023926511894857296;0,18311105685598317;-0,36622211371196634;-0,030518509475997192
12:25:25.858;0;Mov;1;17238;9,73;0;0;0;0,040675070919770656;0,010766930701942408;-0,03708609495047418;0,061037018951994385;-0,21362956633198035;-0,15259254737998595
12:25:25.858;0;Mov;1;17239;9,73;0;0;0;0,05742363041035951;0,003588976900647469;-0,06340525826765496;-0,061037018951994385;0;-0,3357036042359691
12:25:25.858;0;Mov;1;17240;9,73;0;0;0;0,04426404688906713;-0,02273018548518231;-0,0478530228583636;0;0,3357036042359691;-0,18311105685598317
12:25:25.866;0;Wrist;1;63545;9,73;0;0;0;0,08852809377813425;0,021533861403884816;-0,08733176969683676;-0,7019257179479355;-1,403851435895871;0,7019257179479355
12:25:25.866;0;Wrist;1;63546;9,73;0;0;0;0,18303781541356395;-0,00598162785729545;-0,17466353939367352;-0,793481246375927;-0,9155552842799157;0,4882961516159551
12:25:25.866;0;Wrist;1;63547;9,73;0;0;0;0,1387737722499008;0,009570604757942918;-0,13757744071779535;-0,9155552842799157;-0,09155552842799158;0,061037018951994385
12:25:25.866;0;Wrist;1;63548;9,73;0;0;0;0,027515489261180266;0,031104465230476736;-0,04306772280776963;-1,0071108127079074;0,5798516800439466;-0,27466658528397475
12:25:25.866;0;Wrist;1;63549;9,73;0;0;0;-0,01794488357188635;-0,0119632557145909;0;-1,1902218695638904;0,8545182653279214;-0,6103701895199438
12:25:25.889;0;Mov;1;17241;9,59;0;0;0;-0,0023926511894857296;-0,009570604757942918;-0,021533861403884816;0;0,5188146610919523;0,030518509475997192
12:25:25.889;0;Mov;1;17242;9,59;0;0;0;0,010766930701942408;0,003588976900647469;-0,007177953801294938;0,061037018951994385;0,5188146610919523;-0,030518509475997192
12:25:25.889;0;Mov;1;17243;9,59;0;0;0;0,03708609495047418;0,009570604757942918;-0,04426404688906713;-0,030518509475997192;0,45777764213995786;-0,061037018951994385
12:25:25.889;0;Mov;1;17244;9,59;0;0;0;0,03947874311306917;-0,026319163317180778;-0,04306772280776963;0;0,7324442274239327;0
12:25:25.889;0;Mov;1;17245;9,59;0;0;0;-0,007177953801294938;-0,01674855762788686;0,004785302378971459;0;1,0681478316599018;0,12207403790398877
12:25:25.926;0;Wrist;1;63550;9,83;0;0;0;-0,019141209515885837;-0,010766930701942408;0,014355907602589877;-0,9460737937559129;0,793481246375927;-0,45777764213995786
12:25:25.927;0;Wrist;1;63551;9,83;0;0;0;0,013159581658590389;0,00837427881394343;0,0011963255947428648;-0,793481246375927;0,5798516800439466;-0,3357036042359691
12:25:25.927;0;Wrist;1;63552;9,83;0;0;0;0,003588976900647469;-0,020337535459885328;0,026319163317180778;-0,7629627368999298;0,640888698995941;-0,3357036042359691
12:25:25.927;0;Wrist;1;63553;9,83;0;0;0;-0,014355907602589877;-0,004785302378971459;0,01674855762788686;-0,5798516800439466;0,6714072084719382;-0,24414807580797754
12:25:25.927;0;Wrist;1;63554;9,83;0;0;0;-0,004785302378971459;-0,003588976900647469;-0,007177953801294938;-0,640888698995941;0,4272591326639607;-0,24414807580797754
12:25:25.949;0;Mov;1;17246;9,68;0;0;0;-0,025122837373181287;-0,02990813928647725;0,01674855762788686;0,061037018951994385;0,9460737937559129;0,12207403790398877
12:25:25.949;0;Mov;1;17247;9,68;0;0;0;-0,026319163317180778;-0,020337535459885328;0,013159581658590389;0,18311105685598317;0,7629627368999298;0,15259254737998595
12:25:25.949;0;Mov;1;17248;9,68;0;0;0;-0,0478530228583636;-0,014355907602589877;0,038282419031771674;0,24414807580797754;0,45777764213995786;0,15259254737998595
12:25:25.949;0;Mov;1;17249;9,68;0;0;0;-0,028711815205179753;-0,013159581658590389;0,0466566987770661;0,4272591326639607;0,21362956633198035;0,12207403790398877
12:25:25.949;0;Mov;1;17250;9,68;0;0;0;-0,028711815205179753;-0,01794488357188635;0,026319163317180778;0,4882961516159551;0;0,09155552842799158
12:25:25.956;0;Wrist;1;63555;9,67;0;0;0;0,004785302378971459;-0,0011963255947428648;0,0011963255947428648;-0,5493331705679495;0,3967406231879635;-0,12207403790398877
12:25:25.956;0;Wrist;1;63556;9,67;0;0;0;0,010766930701942408;0,009570604757942918;0,013159581658590389;-0,5493331705679495;0,3357036042359691;-0,18311105685598317
12:25:25.956;0;Wrist;1;63557;9,67;0;0;0;0,010766930701942408;0,0119632557145909;0,010766930701942408;-0,4272591326639607;0,4882961516159551;-0,24414807580797754
12:25:25.956;0;Wrist;1;63558;9,67;0;0;0;-0,0023926511894857296;0,009570604757942918;0,003588976900647469;-0,3967406231879635;0,4882961516159551;-0,24414807580797754
12:25:25.956;0;Wrist;1;63559;9,67;0;0;0;-0,00598162785729545;0,0119632557145909;0,021533861403884816;-0,4882961516159551;0,5493331705679495;-0,36622211371196634
12:25:26.008;0;Mov;1;17251;9,76;0;0;0;-0,03708609495047418;-0,0346934430624752;0,021533861403884816;0,6714072084719382;-0,27466658528397475;-0,030518509475997192
12:25:26.008;0;Mov;1;17252;9,76;0;0;0;-0,026319163317180778;-0,056227302603658026;0,01674855762788686;0,7019257179479355;-0,5188146610919523;-0,09155552842799158
12:25:26.008;0;Mov;1;17253;9,76;0;0;0;-0,03947874311306917;-0,03947874311306917;0,027515489261180266;0,9460737937559129;-0,7324442274239327;0,030518509475997192
12:25:26.008;0;Mov;1;17254;9,76;0;0;0;-0,05742363041035951;-0,03230079117447623;0,04426404688906713;1,281777397991882;-1,0681478316599018;0,09155552842799158
12:25:26.008;0;Mov;1;17255;9,76;0;0;0;-0,040675070919770656;-0,027515489261180266;0,0119632557145909;1,5259254737998595;-1,4648884548478653;0
12:25:26.016;0;Wrist;1;63560;9,76;0;0;0;-0,009570604757942918;0,003588976900647469;0,03708609495047418;-0,3967406231879635;0,6714072084719382;-0,3357036042359691
12:25:26.016;0;Wrist;1;63561;9,76;0;0;0;-0,026319163317180778;0,0023926511894857296;0,04306772280776963;-0,27466658528397475;0,5188146610919523;-0,27466658528397475
12:25:26.016;0;Wrist;1;63562;9,76;0;0;0;-0,03230079117447623;0,03230079117447623;0,06460158234895245;-0,27466658528397475;0,21362956633198035;-0,21362956633198035
12:25:26.016;0;Wrist;1;63563;9,76;0;0;0;-0,020337535459885328;0,019141209515885837;0,04187139500106815;-0,5188146610919523;0;-0,27466658528397475
12:25:26.016;0;Wrist;1;63564;9,76;0;0;0;0,007177953801294938;0,0239265114291818;0,010766930701942408;-0,4882961516159551;-0,12207403790398877;-0,3357036042359691
12:25:26.038;0;Mov;1;17256;9,63;0;0;0;-0,0466566987770661;-0,05024567474636257;0,020337535459885328;1,5259254737998595;-1,7090365306558428;-0,09155552842799158
12:25:26.039;0;Mov;1;17257;9,63;0;0;0;-0,06220893046095347;-0,013159581658590389;0,0239265114291818;1,6479995117038484;-2,2583697012237924;-0,09155552842799158
12:25:26.039;0;Mov;1;17258;9,63;0;0;0;-0,020337535459885328;-0,038282419031771674;-0,04306772280776963;1,7090365306558428;-2,7466658528397474;-0,061037018951994385
12:25:26.039;0;Mov;1;17259;9,63;0;0;0;-0,04426404688906713;0,021533861403884816;0,00598162785729545;1,7090365306558428;-3,173924985503708;-0,15259254737998595
12:25:26.039;0;Mov;1;17260;9,63;0;0;0;-0,05144199882766007;0,05024567474636257;0,009570604757942918;1,8921475875118259;-3,5401470992156745;-0,36622211371196634
12:25:26.077;0;Wrist;1;63565;9,85;0;0;0;0,05144199882766007;0,03230079117447623;0,052638326634361556;-0,5493331705679495;-0,030518509475997192;-0,5188146610919523
12:25:26.078;0;Wrist;1;63566;9,85;0;0;0;0,0119632557145909;0,02273018548518231;0,0023926511894857296;-0,3051850947599719;-0,030518509475997192;-0,7019257179479355
12:25:26.078;0;Wrist;1;63567;9,85;0;0;0;-0,01794488357188635;0,00598162785729545;0,05383465071565905;-0,5798516800439466;0;-0,9460737937559129
12:25:26.078;0;Wrist;1;63568;9,85;0;0;0;-0,009570604757942918;0,04426404688906713;0,04187139500106815;-0,640888698995941;0;-0,9460737937559129
12:25:26.078;0;Wrist;1;63569;9,85;0;0;0;0,00598162785729545;0,06579790643024995;0,0239265114291818;-0,7019257179479355;0,09155552842799158;-1,0071108127079074
12:25:26.099;0;Mov;1;17261;9,71;0;0;0;-0,052638326634361556;0,0119632557145909;0,00598162785729545;1,6785180211798456;-4,24207281716361;-0,6714072084719382
12:25:26.099;0;Mov;1;17262;9,71;0;0;0;-0,028711815205179753;-0,00837427881394343;-0,00837427881394343;1,6174810022278512;-4,760887478255562;-0,8850367748039186
12:25:26.099;0;Mov;1;17263;9,71;0;0;0;-0,04306772280776963;-0,014355907602589877;-0,019141209515885837;1,4648884548478653;-5,096591082491531;-0,8850367748039186
12:25:26.099;0;Mov;1;17264;9,71;0;0;0;-0,0346934430624752;0,05503097852236053;-0,009570604757942918;1,586962492751854;-5,584887234107486;-0,9765923032319102
12:25:26.099;0;Mov;1;17265;9,71;0;0;0;-0,031104465230476736;0,0466566987770661;-0,05383465071565905;1,4954069643238623;-5,829035309915464;-1,0681478316599018
12:25:26.117;0;Wrist;1;63570;9,78;0;0;0;0,01674855762788686;0,04904935066506508;0,0705832102062479;-0,6714072084719382;0,09155552842799158;-1,3122959074678793
12:25:26.117;0;Wrist;1;63571;9,78;0;0;0;0,0598162785729545;0,12082888867801446;0,03230079117447623;-0,8850367748039186;0,27466658528397475;-1,6174810022278512
12:25:26.117;0;Wrist;1;63572;9,78;0;0;0;0,13757744071779535;0,1507370279644917;0,0011963255947428648;-1,281777397991882;0,9765923032319102;-2,2583697012237924
12:25:26.117;0;Wrist;1;63573;9,78;0;0;0;0,16030763551648763;0,20217903051755579;0,010766930701942408;-1,73955504013184;2,3194067201757864;-3,3875545518356884
12:25:26.117;0;Wrist;1;63574;9,78;0;0;0;0,2584063293958098;0,32300790429395426;-0,0717795342875454;-2,5025177770317697;2,807702871791742;-4,791405987731559
12:25:26.157;0;Mov;1;17266;9,78;0;0;0;0,0119632557145909;0,13997008888039034;-0,04904935066506508;1,1597033600878932;-6,2868129520554215;-1,098666341135899
12:25:26.157;0;Mov;1;17267;9,78;0;0;0;0,04426404688906713;0,21892758255733666;-0,015552232615238368;0,8545182653279214;-6,530961027863399;-1,5259254737998595
12:25:26.157;0;Mov;1;17268;9,78;0;0;0;-0,0011963255947428648;0,12441786092190694;-0,007177953801294938;0,3967406231879635;-6,225775933103427;-2,3194067201757864
12:25:26.158;0;Mov;1;17269;9,78;0;0;0;0,04426404688906713;0,08613544561553926;-0,08015381775824382;0,18311105685598317;-6,74459059419538;-2,8992584002197335
12:25:26.158;0;Mov;1;17270;9,78;0;0;0;0,05024567474636257;-0,08015381775824382;-0,08613544561553926;0,27466658528397475;-6,805627613147374;-3,295999023407697
12:25:26.166;0;Wrist;1;63575;9,78;0;0;0;0,42110661307489244;0,3864131774632252;-0,18543046357615894;-3,9063692129276406;3,448591570787683;-6,622516556291391
12:25:26.166;0;Wrist;1;63576;9,78;0;1,0862636665700247;-0,7656483657338176;1,0862636665700247;-0,15791497245227668;-0,7656483657338176;-6,347849971007416;4,66933194982757;-9,216589861751151
12:25:26.166;0;Wrist;1;63577;9,78;-0,5467207980780968;1,3662038741340372;-0,5778252390934476;1,3662038741340372;-0,5467207980780968;-0,5778252390934476;-6,530961027863399;10,98666341135899;-12,878810998870815
12:25:26.166;0;Wrist;1;63578;9,78;0;1,0982269222846157;0;1,0982269222846157;-0,038282419031771674;-0,19021577480296487;-8,14844203009125;21,485030671102024;-16,602069154942473
12:25:26.166;0;Wrist;1;63579;9,78;0;0,8039307959418012;0;0,8039307959418012;-0,363682967762917;-0,0119632557145909;-10,315256202887051;31,128879665517136;-20,87466048158208
12:25:26.188;0;Mov;1;17271;9,66;0;0;0;0;-0,12441786092190694;-0,00837427881394343;0,3357036042359691;-6,378368480483413;-3,051850947599719
12:25:26.188;0;Mov;1;17272;9,66;0;0;0;0,025122837373181287;-0,08135014183954131;-0,013159581658590389;0,5493331705679495;-6,073183385723441;-2,563554795983764
12:25:26.188;0;Mov;1;17273;9,66;0;0;0;0,15911130398438214;-0,07895748622613834;-0,05503097852236053;0,6103701895199438;-5,584887234107486;-2,197332682271798
12:25:26.188;0;Mov;1;17274;9,66;0;0;0;0,1315958128604999;-0,12441786092190694;0,003588976900647469;0,7324442274239327;-4,150517288735618;-1,4648884548478653
12:25:26.188;0;Mov;1;17275;9,66;0;0;0;-0,02273018548518231;-0,12441786092190694;0,06579790643024995;0,7629627368999298;-3,051850947599719;-0,793481246375927
12:25:26.226;0;Wrist;1;63580;9,85;-1,1544541764580218;0;0,7309549599253823;0,42110661307489244;-1,1544541764580218;0,7309549599253823;-6,897183141575366;40,83376567888424;-30,274361400189214
12:25:26.226;0;Wrist;1;63581;9,85;0,6400341807306131;0;0,598162785729545;0,3098483170472579;0,6400341807306131;0,598162785729545;-3,7232581560716573;55,87939085055086;-41,35258033997619
12:25:26.226;0;Wrist;1;63582;9,85;0;1,0754967125843073;0,6842982387958922;1,0754967125843073;0,34813074725524157;0,6842982387958922;-3,357036042359691;70,28412732322154;-53,2853175450911
12:25:26.226;0;Wrist;1;63583;9,85;0,9020295047227394;0;0;0,37923521807382427;0,9020295047227394;0,0957060457167272;-2,5940733054597613;85,05508590960417;-65,40116580706199
12:25:26.226;0;Wrist;1;63584;9,85;1,8590899618900112;0;0,5132236939985351;0,0119632557145909;1,8590899618900112;0,5132236939985351;2,410962248603778;86,76412244026002;-82,46101260414441
12:25:26.248;0;Mov;1;17276;9,74;0;0;0;0,00598162785729545;-0,0346934430624752;0,04187139500106815;1,3122959074678793;-2,7771843623157446;-0,3051850947599719
12:25:26.248;0;Mov;1;17277;9,74;0;0;0;0,031104465230476736;-0,021533861403884816;-0,01794488357188635;1,6174810022278512;-2,5025177770317697;-0,12207403790398877
12:25:26.248;0;Mov;1;17278;9,74;0;0;0;0,1674855800042726;-0,0598162785729545;-0,038282419031771674;2,4414807580797753;-2,288888210699789;-0,24414807580797754
12:25:26.248;0;Mov;1;17279;9,74;0;0;0;0,13757744071779535;-0,0933133975541322;0,00837427881394343;3,5401470992156745;-0,9155552842799157;-0,061037018951994385
12:25:26.248;0;Mov;1;17280;9,74;0;0;0;0,04546037097036462;0,04904935066506508;0,05742363041035951;4,486220892971588;0,4882961516159551;0,4272591326639607
12:25:26.256;0;Wrist;1;63585;9,73;4,041188066499832;1,0934415961561936;3,6751123462630084;1,0934415961561936;4,041188066499832;3,6751123462630084;-8,453627124851222;86,21478926969206;-105,74663533433026
12:25:26.256;0;Wrist;1;63586;9,73;6,263960787530137;1,3961120134205145;2,5362102114932705;1,3961120134205145;6,263960787530137;2,5362102114932705;-48,64650410473953;112,30811487166967;-117,28263191625722
12:25:26.256;0;Wrist;1;63587;9,73;5,437299722281564;1,4367869874797814;1,1855586174733725;1,4367869874797814;5,437299722281564;1,1855586174733725;-96,92678609576708;136,20410779137546;-127,20114749595629
12:25:26.256;0;Wrist;1;63588;9,73;3,9550524346140934;2,3639394245735037;3,8198675973540452;2,3639394245735037;3,9550524346140934;3,8198675973540452;-129,45951719718008;144,7492904446547;-138,82869960631123
12:25:26.256;0;Wrist;1;63589;9,73;7,161204966124455;6,456569299905393;6,309420968504898;6,456569299905393;7,161204966124455;6,309420968504898;-143,19284646137882;142,76558732871487;-135,19699697866756
12:25:26.307;0;Mov;1;17281;9,8;0;0;0;0,05503097852236053;0,117239908983314;0,031104465230476736;4,608294930875576;0,9765923032319102;0,3357036042359691
12:25:26.307;0;Mov;1;17282;9,8;0;0;0;0,08852809377813425;0,13279214439260537;0,02273018548518231;4,150517288735618;1,403851435895871;0,061037018951994385
12:25:26.307;0;Mov;1;17283;9,8;0;0;0;0,11604358490201651;0,11245460520731605;-0,0466566987770661;3,4180730613116856;2,3499252296517836;-0,12207403790398877
12:25:26.307;0;Mov;1;17284;9,8;0;0;0;0,1866267951082644;0,11484726082071901;-0,08493911408343378;3,1434064760277107;3,051850947599719;-0,21362956633198035
12:25:26.307;0;Mov;1;17285;9,8;0;0;0;0,08852809377813425;0,0693868861249504;-0,0239265114291818;2,9297769096957307;4,303109836115604;-0,3051850947599719
12:25:26.338;0;Mov;1;17286;9,69;0;0;0;-0,020337535459885328;0,0705832102062479;-0,0346934430624752;2,2583697012237924;5,035554063539537;-0,15259254737998595
12:25:26.338;0;Mov;1;17287;9,69;0;0;0;0,08972441785943175;0,07417218990094836;-0,03708609495047418;0,8545182653279214;5,005035554063539;-0,3051850947599719
12:25:26.338;0;Mov;1;17288;9,69;0;0;0;0,009570604757942918;-0,04546037097036462;-0,0023926511894857296;0,45777764213995786;5,554368724631489;-0,21362956633198035
12:25:26.338;0;Mov;1;17289;9,69;0;0;0;-0,07656483806354335;0,014355907602589877;0,007177953801294938;0,3967406231879635;5,554368724631489;0,061037018951994385
12:25:26.338;0;Mov;1;17290;9,69;0;0;0;-0,09211707347283471;0,03230079117447623;0,04426404688906713;0,18311105685598317;5,035554063539537;-0,030518509475997192
12:25:26.346;0;Wrist;1;63590;9,98;12,719333666493728;7,593078592791528;9,730912579729607;7,593078592791528;12,719333666493728;9,730912579729607;-115,75670644245736;125,21744438001647;-103,1525620288705
12:25:26.346;0;Wrist;1;63591;9,98;14,852381969664602;10,18671224097415;11,231104274117252;10,18671224097415;14,852381969664602;11,231104274117252;-43,18369090853603;86,42841883602405;-65,52323984496597
12:25:26.346;0;Wrist;1;63592;9,98;15,512753875850704;13,230164876247445;6,78316599017304;13,230164876247445;15,512753875850704;6,78316599017304;-0,7324442274239327;42,4207281716361;-20,508438367870113
12:25:26.346;0;Wrist;1;63593;9,98;13,897714354380932;14,705234115115818;1,6138432197408978;14,705234115115818;13,897714354380932;1,6138432197408978;10,498367259743034;16,937772759178443;22,06488235114597
12:25:26.346;0;Wrist;1;63594;9,98;10,22978053376873;15,263918347727897;0;15,263918347727897;10,22978053376873;0,22012391408944212;12,573625904110843;4,913480025635548;54,99435407574694
12:25:26.375;0;Wrist;1;63595;9,87;6,919547009949034;15,19094286935026;1,1269387598422194;15,19094286935026;6,919547009949034;1,1269387598422194;27,680288094729452;-5,401776177251503;78,1579027680288
12:25:26.376;0;Wrist;1;63596;9,87;4,499380569627979;15,096432767723625;2,753941417813654;15,096432767723625;4,499380569627979;2,753941417813654;49,62309640797143;-21,668141727958005;92,25745414593952
12:25:26.376;0;Wrist;1;63597;9,87;2,3759026802880947;14,759068765831477;4,110574758903775;14,759068765831477;2,3759026802880947;4,110574758903775;68,63612781151768;-42,3291726432081;98,51374858851894
12:25:26.376;0;Wrist;1;63598;9,87;0,6220892971587267;14,056825464644307;4,96116233558153;14,056825464644307;0,6220892971587267;4,96116233558153;83,6817529831843;-64,33301797540209;99,88708151493881
12:25:26.376;0;Wrist;1;63599;9,87;-0,5826105652218696;12,993292603839228;5,583251632740257;12,993292603839228;-0,5826105652218696;5,583251632740257;91,92175054170355;-85,66545609912411;98,33063753166296
12:25:26.406;0;Wrist;1;63600;9,75;-1,3243324791329691;11,850801683095797;6,045033398693808;11,850801683095797;-1,3243324791329691;6,045033398693808;91,92175054170355;-105,04470961638233;95,55345316934721
12:25:26.406;0;Wrist;1;63601;9,75;-1,6389660328989533;10,435547769096956;6,326169907986694;10,435547769096956;-1,6389660328989533;6,326169907986694;82,85775322733238;-120,70070497756889;91,86071352275155
12:25:26.406;0;Wrist;1;63602;9,75;-1,7550096848582415;8,880324526200141;6,494851432081057;8,880324526200141;-1,7550096848582415;6,494851432081057;69,06338694418164;-134,40351573229162;88,74782555619983
12:25:26.406;0;Wrist;1;63603;9,75;-1,670070473914304;7,32151249732963;6,488869804223762;7,32151249732963;-1,670070473914304;6,488869804223762;56,15405743583484;-146,12262337107455;87,37449262977997
12:25:26.406;0;Wrist;1;63604;9,75;-1,2142704550309762;5,736381115146337;6,485281018250069;5,736381115146337;-1,2142704550309762;6,485281018250069;45,96087527085177;-154,97299111911374;87,52708517715995
12:25:26.458;0;Mov;1;17291;10,1;0;0;0;-0,11006195704472106;-0,08135014183954131;0,0119632557145909;0,36622211371196634;4,211554307687613;0,09155552842799158
12:25:26.458;0;Mov;1;17292;10,1;0;0;0;-0,10886562551261558;-0,08493911408343378;0,03708609495047418;0,4272591326639607;3,5401470992156745;0,4882961516159551
12:25:26.458;0;Mov;1;17293;10,1;0;0;0;-0,10886562551261558;-0,08135014183954131;0,0346934430624752;1,0071108127079074;2,838221381267739;0,640888698995941
12:25:26.458;0;Mov;1;17294;10,1;0;0;0;-0,06460158234895245;-0,0119632557145909;-0,01674855762788686;1,4954069643238623;1,7700735496078372;0,7629627368999298
12:25:26.458;0;Mov;1;17295;10,1;0;0;0;0,010766930701942408;-0,0466566987770661;-0,04426404688906713;1,73955504013184;1,0681478316599018;1,0071108127079074
12:25:26.555;0;Wrist;1;63605;10,32;-0,5204016235847041;3,987353177358318;6,530741199224829;3,987353177358318;-0,5204016235847041;6,530741199224829;36,50013733329264;-161,44291512802513;89,54130680257576
12:25:26.556;0;Wrist;1;63606;10,32;0;2,1713309121982483;6,356078047273171;2,1713309121982483;0,10049134949272515;6,356078047273171;27,588732566301463;-166,47846919156467;92,95937986388745
12:25:26.556;0;Wrist;1;63607;10,32;0,6627643904309214;0;5,829694795831172;0,39119847378841516;0,6627643904309214;5,829694795831172;20,53895687734611;-169,28617206335642;97,14041566209906
12:25:26.556;0;Wrist;1;63608;10,32;1,1999145958586384;-1,301602269432661;5,076009685811945;-1,301602269432661;1,1999145958586384;5,076009685811945;16,235847041230507;-169,53032013916442;100,89419232764672
12:25:26.556;0;Wrist;1;63609;10,32;1,6521255903424177;-2,8628071401867734;4,345054666280099;-2,8628071401867734;1,6521255903424177;4,345054666280099;13,611255226294748;-167,3329874568926;104,06811731315042
12:25:26.557;0;Wrist;1;63610;10,05;2,0038453321939755;-4,218244060335093;3,840205084383679;-4,218244060335093;2,0038453321939755;3,840205084383679;10,22370067445906;-163,121433149205;106,14337595751823
12:25:26.557;0;Wrist;1;63611;10,05;2,0493057515945923;-5,349968146305734;3,4466140667439804;-5,349968146305734;2,0493057515945923;3,4466140667439804;7,782219916379284;-157,6586199530015;107,11996826075014
12:25:26.557;0;Wrist;1;63612;10,05;1,8555010567033907;-6,305832182531205;3,0267036957914977;-6,305832182531205;1,8555010567033907;3,0267036957914977;9,552293465987121;-152,59254737998597;107,94396801660207
12:25:26.557;0;Wrist;1;63613;10,05;1,4954069643238623;-7,046357615894039;2,275411189230018;-7,046357615894039;1,4954069643238623;2,275411189230018;14,77095858638264;-147,8316599017304;108,89004181035799
12:25:26.558;0;Wrist;1;63614;10,05;0,9809869685964537;-7,643324457533494;1,2633197796182134;-7,643324457533494;0,9809869685964537;1,2633197796182134;20,935697500534072;-142,67403180028688;110,17181920834986
12:25:26.559;0;Wrist;1;63615;9,79;0;-8,105105746635335;0;-8,105105746635335;0,3517197120483261;0,20217903051755579;25,23880733664968;-134,95284890285959;111,27048554948577
12:25:26.559;0;Wrist;1;63616;9,79;0;-8,523819696646015;0;-8,523819696646015;-0,29190343347537157;-0,33736382307275614;24,842066713461715;-124,51551866206854;111,39255958738975
12:25:26.559;0;Wrist;1;63617;9,79;-0,9056184695158238;-8,974834627826777;0;-8,974834627826777;-0,9056184695158238;-0,42349924633587144;22,370067445905942;-113,95611438337352;109,8361156041139
12:25:26.559;0;Wrist;1;63618;9,79;-1,5588122672963654;-9,446187284463027;-0,6149113675725577;-9,446187284463027;-1,5588122672963654;-0,6149113675725577;19,98962370677816;-104,15967284157841;106,23493148594622
12:25:26.559;0;Wrist;1;63619;9,79;-2,2407178430280466;-9,918735885189367;-0,7512924469550157;-9,918735885189367;-2,2407178430280466;-0,7512924469550157;19,257179479354228;-95,52293465987121;100,0091555528428
12:25:26.579;0;Mov;1;17296;10,49;0;0;0;-0,0358897671437727;-0,0358897671437727;0,00837427881394343;1,9837031159398175;1,0681478316599018;1,1597033600878932
12:25:26.579;0;Mov;1;17297;10,49;0;0;0;-0,0023926511894857296;0,021533861403884816;0,00598162785729545;2,7771843623157446;0,6714072084719382;1,1291848506118962
12:25:26.579;0;Mov;1;17298;10,49;0;0;0;0,01794488357188635;-0,05383465071565905;-0,0466566987770661;3,2349620044557024;0,4882961516159551;1,0071108127079074
12:25:26.579;0;Mov;1;17299;10,49;0;0;0;0,0023926511894857296;-0,040675070919770656;-0,04546037097036462;2,9297769096957307;0,6714072084719382;1,2207403790398876
12:25:26.579;0;Mov;1;17300;10,49;0;0;0;0,03947874311306917;-0,031104465230476736;-0,06579790643024995;2,8992584002197335;0,7629627368999298;1,4648884548478653
12:25:26.608;0;Mov;1;17301;10,36;0;0;0;0,09690236979802469;-0,04306772280776963;-0,11365092928861355;3,0823694570757163;0,9765923032319102;1,6479995117038484
12:25:26.608;0;Mov;1;17302;10,36;0;0;0;0,11245460520731605;-0,010766930701942408;-0,07417218990094836;2,9908139286477247;1,7700735496078372;2,0142216254158147
12:25:26.608;0;Mov;1;17303;10,36;0;0;0;0,11245460520731605;0,03947874311306917;-0,07656483806354335;2,71614734336375;2,7466658528397474;2,197332682271798
12:25:26.608;0;Mov;1;17304;10,36;0;0;0;0,13757744071779535;0,01674855762788686;-0,06699423051154745;2,533036286507767;3,814813684499649;2,2278511917477952
12:25:26.608;0;Mov;1;17305;10,36;0;0;0;0,09092074194072924;0,010766930701942408;-0,028711815205179753;1,6479995117038484;5,005035554063539;2,410962248603778
12:25:26.638;0;Mov;1;17306;10,25;0;0;0;0,11006195704472106;0,10049134949272515;-0,020337535459885328;1,0376293221839046;6,19525742362743;2,7466658528397474
12:25:26.638;0;Mov;1;17307;10,25;0;0;0;0,06460158234895245;0,08613544561553926;-0,0466566987770661;0,36622211371196634;7,538071840571306;2,6551103244117558
12:25:26.638;0;Mov;1;17308;10,25;0;0;0;0,052638326634361556;0,05383465071565905;-0,027515489261180266;-0,4882961516159551;8,423108615375225;2,533036286507767
12:25:26.638;0;Mov;1;17309;10,25;0;0;0;-0,00598162785729545;0,003588976900647469;-0,03230079117447623;-1,1291848506118962;8,819849238563188;2,5025177770317697
12:25:26.638;0;Mov;1;17310;10,25;0;0;0;-0,015552232615238368;0,013159581658590389;0,0011963255947428648;-1,7090365306558428;9,002960295419172;2,563554795983764
12:25:26.639;0;Mov;1;17311;9,99;0;0;0;-0,03947874311306917;-0,04306772280776963;-0,010766930701942408;-1,8311105685598315;8,758812219611194;2,685628833887753
12:25:26.639;0;Mov;1;17312;9,99;0;0;0;-0,014355907602589877;-0,03230079117447623;-0,031104465230476736;-1,5259254737998595;8,392590105899227;3,021332438123722
12:25:26.639;0;Mov;1;17313;9,99;0;0;0;0,015552232615238368;-0,009570604757942918;-0,0466566987770661;-0,5493331705679495;7,690664387951292;3,47911008026368
12:25:26.640;0;Mov;1;17314;9,99;0;0;0;0,038282419031771674;-0,0011963255947428648;0,04546037097036462;-0,24414807580797754;7,965330973235267;3,814813684499649
12:25:26.640;0;Mov;1;17315;9,99;0;0;0;0,015552232615238368;0,06579790643024995;0,028711815205179753;-0,640888698995941;8,6977752006592;3,814813684499649
12:25:26.642;0;Mov;1;17316;9,76;0;0;0;0,05503097852236053;0,14834437980189671;0,03230079117447623;-1,0071108127079074;9,094515823847164;3,6317026276436657
12:25:26.642;0;Mov;1;17317;9,76;0;0;0;0,0119632557145909;0,0478530228583636;-0,021533861403884816;-1,1291848506118962;9,552293465987121;3,2349620044557024
12:25:26.642;0;Mov;1;17318;9,76;0;0;0;0,06579790643024995;-0,013159581658590389;-0,00598162785729545;-0,793481246375927;10,101626636555071;3,295999023407697
12:25:26.642;0;Mov;1;17319;9,76;0;0;0;0,014355907602589877;-0,06579790643024995;-0,06101260637965598;-0,030518509475997192;10,742515335551012;3,8758507034516434
12:25:26.642;0;Mov;1;17320;9,76;0;0;0;-0,03708609495047418;-0,11484726082071901;0,0466566987770661;0,3051850947599719;11,53599658192694;5,096591082491531
12:25:26.646;0;Wrist;1;63620;9,99;-2,663020817438276;-10,465455908383435;0;-10,465455908383435;-2,663020817438276;-0,0358897671437727;18,89095736564226;-89,78545487838375;90,36530655842769
12:25:26.646;0;Wrist;1;63621;9,99;-3,0374707689901426;-10,709506706442458;0;-10,709506706442458;-3,0374707689901426;0,3828241828669088;18,341624195074314;-87,71019623401592;78,55464339121677
12:25:26.646;0;Wrist;1;63622;9,99;-3,7935484824671164;-10,52527218695639;0;-10,52527218695639;-3,7935484824671164;-0,4007690664387951;17,242957853938414;-87,80175176244393;65,218054750206
12:25:26.646;0;Wrist;1;63623;9,99;-4,67524061937315;-10,159196943571276;-1,597094637897885;-10,159196943571276;-4,67524061937315;-1,597094637897885;17,639698477126377;-86,73360393078401;50,29450361644337
12:25:26.648;0;Wrist;1;63624;9,99;-5,02696024201178;-9,529930074465163;-2,686947328867458;-9,529930074465163;-5,02696024201178;-2,686947328867458;19,5928830835902;-82,82723471785638;34,272286141544846
12:25:26.650;0;Wrist;1;63625;9,75;-4,549626434369945;-8,717624629963073;-3,175048209707938;-8,717624629963073;-4,549626434369945;-3,175048209707938;18,524735251930295;-74,37360759300516;18,82992034669027
12:25:26.650;0;Wrist;1;63626;9,75;-3,6475968104342784;-7,890963564714499;-3,0027771843623157;-7,890963564714499;-3,6475968104342784;-3,0027771843623157;10,834070863979003;-63,966795861690116;6,0121463667714465
12:25:26.650;0;Wrist;1;63627;9,75;-2,4153814718314157;-6,990130600146489;-2,448878397091586;-6,990130600146489;-2,4153814718314157;-2,448878397091586;0,640888698995941;-54,200872829371015;-2,71614734336375
12:25:26.650;0;Wrist;1;63628;9,75;-1,0982269222846157;-6,0665670682393875;-1,7597948917737358;-6,0665670682393875;-1,0982269222846157;-1,7597948917737358;-6,95822016052736;-46,388134403515735;-7,019257179479355
12:25:26.650;0;Wrist;1;63629;9,75;0;-5,200427449873348;-1,0252510862681967;-5,200427449873348;-0,01794488357188635;-1,0252510862681967;-13,641773735770744;-41,871395001068144;-8,087405011139255
12:25:26.699;0;Mov;1;17321;9,8;0;0;0;0,01794488357188635;-0,06699423051154745;0,026319163317180778;0,7324442274239327;12,695699942014832;5,76799829096347
12:25:26.700;0;Mov;1;17322;9,8;0;0;0;0,18423414694566942;-0,14834437980189671;0,12082888867801446;1,586962492751854;13,36710715048677;6,683553575243385
12:25:26.700;0;Mov;1;17323;9,8;0;0;0;0,3050630207220679;0,04187139500106815;-0,00837427881394343;1,9837031159398175;15,533921323282572;7,599108859523301
12:25:26.700;0;Mov;1;17324;9,8;0;0;0;0,003588976900647469;0,04426404688906713;0,0957060457167272;4,333628345591602;18,15851313821833;6,836146122623371
12:25:26.700;0;Mov;1;17325;9,8;0;0;0;0,17585985602416304;-0,010766930701942408;-0,0358897671437727;7,110812707907346;19,34873500778222;6,19525742362743
12:25:26.709;0;Wrist;1;63630;9,81;0;-4,378551591540269;-0,9223670513588367;-4,378551591540269;0,35770133990562153;-0,9223670513588367;-18,4942167424543;-40,803247169408245;-7,38547929319132
12:25:26.709;0;Wrist;1;63631;9,81;0,5766289373645741;-3,6739159253212073;-0,7130100763534959;-3,6739159253212073;0,5766289373645741;-0,7130100763534959;-17,15140232551042;-42,63435773796808;-5,920590838343455
12:25:26.709;0;Wrist;1;63632;9,81;1,0527665028839992;-3,0745567186498612;0;-3,0745567186498612;1,0527665028839992;-0,46058534501174964;-11,230811487166967;-46,174504837183754;-3,5401470992156745
12:25:26.709;0;Wrist;1;63633;9,81;1,2860499893185218;-2,7563342596972564;0;-2,7563342596972564;1,2860499893185218;-0,2895108002143925;-5,401776177251503;-50,29450361644337;0
12:25:26.709;0;Wrist;1;63634;9,81;1,135312991157262;-2,680965701010163;0;-2,680965701010163;1,135312991157262;-0,4534073856223487;-1,9837031159398175;-53,834650715659045;5,401776177251503
12:25:26.728;0;Mov;1;17326;9,7;0;0;0;0,2009826989854503;0,06579790643024995;0,0598162785729545;7,751701406903287;20,508438367870113;6,683553575243385
12:25:26.728;0;Mov;1;17327;9,7;0;0;0;0,03230079117447623;-0,0023926511894857296;0,1961974026602603;7,93481246375927;21,72917874691;6,74459059419538
12:25:26.729;0;Mov;1;17328;9,7;0;0;0;0,03947874311306917;-0,07776116214484084;0,10168767357402264;8,941923276467177;23,407696768089846;6,500442518387402
12:25:26.729;0;Mov;1;17329;9,7;0;0;0;-0,04426404688906713;-0,13997008888039034;0,031104465230476736;8,423108615375225;24,65895565660573;6,653035065767388
12:25:26.729;0;Mov;1;17330;9,7;0;0;0;0,1961974026602603;-0,00598162785729545;0,2667806203173162;9,826960051271096;23,438215277565845;6,683553575243385
12:25:26.765;0;Wrist;1;63635;9,84;0,6376415176664022;-2,6534501651814324;-0,9415082366595966;-2,6534501651814324;0,6376415176664022;-0,9415082366595966;-1,3122959074678793;-54,811243018890956;11,07821893978698
12:25:26.765;0;Wrist;1;63636;9,84;0;-2,8783594203009124;-1,2764794562746056;-2,8783594203009124;0,038282419031771674;-1,2764794562746056;-2,6245918149357585;-53,10220648823511;14,587847529526657
12:25:26.765;0;Wrist;1;63637;9,84;0;-3,082930949964904;-1,381756035035249;-3,082930949964904;-0,4474257577650533;-1,381756035035249;-5,1576281014435255;-49,653614917447435;14,831995605334635
12:25:26.765;0;Wrist;1;63638;9,84;-1,003717178296762;-3,4513992736594745;-1,1723990600299081;-3,4513992736594745;-1,003717178296762;-1,1723990600299081;-5,706961272011475;-46,84591204565569;11,505478072450941
12:25:26.765;0;Wrist;1;63639;9,84;-1,3566332218771935;-3,824653042695395;-1,1317239667577135;-3,824653042695395;-1,3566332218771935;-1,1317239667577135;-1,6479995117038484;-45,28946806237983;5,981627857295449
12:25:26.788;0;Mov;1;17331;9,76;0;0;0;0,28472550388920254;-0,15193334459498123;0,02273018548518231;9,460737937559129;24,262215033417768;7,232886745811334
12:25:26.789;0;Mov;1;17332;9,76;0;0;0,717795342875454;-0,1866267951082644;0,17107455969897306;0,717795342875454;7,873775444807276;27,80236213263344;8,331553086947233
12:25:26.789;0;Mov;1;17333;9,76;0;0;0;-0,2153386028626362;-0,05742363041035951;-0,41153599062128055;9,949034089175084;34,516434217352824;6,317331461531419
12:25:26.789;0;Mov;1;17334;9,76;0;0,5287759145062105;0;0,5287759145062105;-0,0011963255947428648;0,01794488357188635;12,665181432538835;28,2601397747734;5,554368724631489
12:25:26.789;0;Mov;1;17335;9,76;0;0;0,5491134611423079;0,28352917235709707;0,17107455969897306;0,5491134611423079;7,080294198431349;30,487990966521195;6,561479537339396
12:25:26.796;0;Wrist;1;63640;9,75;-1,24298229258858;-4,14885736793115;-1,3063875955610829;-4,14885736793115;-1,24298229258858;-1,3063875955610829;3,5096285897396773;-44,5570238349559;-0,5493331705679495
12:25:26.796;0;Wrist;1;63641;9,75;-0,8446058892139958;-4,56637489700003;-1,1018158274712364;-4,56637489700003;-0,8446058892139958;-1,1018158274712364;4,638813440351573;-43,76354258857997;-6,347849971007416
12:25:26.796;0;Wrist;1;63642;9,75;-0,7345439247184667;-5,054475539414655;-1,2441785943174535;-5,054475539414655;-0,7345439247184667;-1,2441785943174535;3,69273964659566;-42,20709860530412;-9,88799707022309
12:25:26.796;0;Wrist;1;63643;9,75;-0,8517838188001648;-5,395428327280496;-1,927280590990936;-5,395428327280496;-0,8517838188001648;-1,927280590990936;2,4414807580797753;-39,735099337748345;-11,505478072450941
12:25:26.796;0;Wrist;1;63644;9,75;-0,8625507727858821;-6,030677301095614;-2,3208716086306347;-6,030677301095614;-0,8625507727858821;-2,3208716086306347;1,2207403790398876;-34,211249122592854;-12,359996337778863
12:25:26.947;0;Wrist;1;63645;10,22;-0,8170903533852657;-6,810681764427625;-2,7850459780419325;-6,810681764427625;-0,8170903533852657;-2,7850459780419325;-0,8545182653279214;-26,52058473464156;-12,39051484725486
12:25:26.947;0;Wrist;1;63646;10,22;-0,7046357854319895;-7,7222815637684254;-3,2910917424542987;-7,7222815637684254;-0,7046357854319895;-3,2910917424542987;-4,089480269783624;-16,785180211798455;-11,20029297769097
12:25:26.948;0;Wrist;1;63647;10,22;-0,579021600428785;-8,637470625934629;-3,7935484824671164;-8,637470625934629;-0,579021600428785;-3,7935484824671164;-8,728293710135198;-4,943998535111545;-8,423108615375225
12:25:26.948;0;Wrist;1;63648;10,22;0;-9,488058679464094;-4,12732322153386;-9,488058679464094;-0,3888058107242042;-4,12732322153386;-13,611255226294748;8,850367748039186;-4,516739402447585
12:25:26.948;0;Wrist;1;63649;10,22;0;-9,824225783562731;-4,279256759849849;-9,824225783562731;-0,22371287888252664;-4,279256759849849;-17,48710592974639;23,37717825861385;1,2207403790398876
12:25:26.951;0;Wrist;1;63650;10,01;0;-10,085024567400128;-4,146464526047548;-10,085024567400128;-0,2799401777607807;-4,146464526047548;-20,172734763634143;37,96502578814051;8,392590105899227
12:25:26.951;0;Wrist;1;63651;10,01;0;-10,21901322214423;-3,4095278786584062;-10,21901322214423;-0,40794702582819603;-3,4095278786584062;-19,379253517258217;51,72887356181524;15,350810266426588
12:25:26.951;0;Wrist;1;63652;10,01;-0,830249970435194;-8,996368297372356;-2,6510575617236856;-8,996368297372356;-0,830249970435194;-2,6510575617236856;-15,808587908566546;61,79998168889431;21,118808557390057
12:25:26.951;0;Wrist;1;63653;10,01;-10,2608846171453;17,777397991882076;3,8725060655537584;17,777397991882076;-10,2608846171453;3,8725060655537584;-14,435254982146672;21,08829004791406;15,137180700094607
12:25:26.951;0;Wrist;1;63654;10,01;-5,76270046845912;24,456484420300914;-0,6412305420659505;24,456484420300914;-5,76270046845912;-0,6412305420659505;10,22370067445906;-5,76799829096347;-24,01806695760979
12:25:26.953;0;Wrist;1;63655;9,81;0;15,755607776116214;-24,798633152256844;15,755607776116214;-0,0717795342875454;-24,798633152256844;-41,932432020020144;109,43937498092593;-104,06811731315042
12:25:26.953;0;Wrist;1;63656;9,81;6,332151535843989;-6,580987063966796;-14,134586626789147;-6,580987063966796;6,332151535843989;-14,134586626789147;-50,69124423963134;243,07992797631763;-142,2772911770989
12:25:26.956;0;Wrist;1;63657;9,81;9,36244449446089;-16,290366451002534;19,518051698355052;-16,290366451002534;9,36244449446089;19,518051698355052;-1,0071108127079074;282,601397747734;-90,39582506790369
12:25:26.956;0;Wrist;1;63658;9,81;1,494210662594989;-7,706729522080142;14,644221892452773;-7,706729522080142;1,494210662594989;14,644221892452773;42,93954283272805;227,82067323831905;-26,795251319925534
12:25:26.956;0;Wrist;1;63659;9,81;-5,8057682844019896;-1,6353771277123326;5,890707018494217;-1,6353771277123326;-5,8057682844019896;5,890707018494217;55,39109469893491;205,3590502639851;-16,84621723075045
12:25:26.969;0;Mov;1;17336;10,36;0;0;0;-0,11365092928861355;-0,13039949623001038;0,36009400296983246;5,1576281014435255;39,00265511032441;6,714072084719382
12:25:26.969;0;Mov;1;17337;10,36;0;0;0;0,16270028367908262;-0,13279214439260537;0,14954069643238624;3,662221137119663;43,27524643696402;8,117923520615253
12:25:26.969;0;Mov;1;17338;10,36;0;0;0;0,38402051439901425;-0,031104465230476736;0,3265968988902707;3,5096285897396773;45,74724570451979;9,216589861751151
12:25:26.970;0;Mov;1;17339;10,36;0;0;0;0,25362103307061984;-0,07656483806354335;0,46297800807596057;7,690664387951292;51,0879848628193;10,589922788171025
12:25:26.970;0;Mov;1;17340;10,36;0;0;0;0,2942960965395825;-0,1794488357188635;0,3194189395008698;11,597033600878934;58,16827906125065;12,756736960966826
12:25:26.971;0;Mov;1;17341;10,14;0;0,5431318332850124;0;0,5431318332850124;-0,38760947919209876;0,3062593522541734;13,031403546250802;61,83050019837031;14,496292001098666
12:25:26.972;0;Mov;1;17342;10,14;0;0,5000640769486069;0;0,5000640769486069;-0,37923521807382427;0,2799401777607807;14,55732902005066;65,95049897762993;17,60917996765038
12:25:26.972;0;Mov;1;17343;10,14;0;0,532364879299295;0;0,532364879299295;-0,3385601546048616;0,015552232615238368;19,928586687826165;69,15494247260963;20,75258644367809
12:25:26.972;0;Mov;1;17344;10,14;0;1,4379834084215828;0;1,4379834084215828;-0,234479817966628;0,44503312450407423;27,95495468001343;72,9087191381573;24,048585467085786
12:25:26.972;0;Mov;1;17345;10,14;0;0;0;-0,4773339268547624;-0,3385601546048616;-0,0478530228583636;38,69747001556444;83,13241981261635;23,499252296517838
12:25:26.973;0;Mov;1;17346;9,93;0;0;0;-0,0346934430624752;-0,31582994490455335;0,49408247889454326;44,92324594866787;78,79879146702476;28,626361888485366
12:25:26.974;0;Mov;1;17347;9,93;0;0;0,6005554487937559;0,0346934430624752;-0,26079899246002075;0,6005554487937559;47,27317117831965;74,61775566881313;27,1614734336375
12:25:26.974;0;Mov;1;17348;9,93;0;0;1,0671224812692648;0,40675069429609056;-0,4294808741931669;1,0671224812692648;44,40443128757592;70,98605304116947;24,719992675557727
12:25:26.974;0;Mov;1;17349;9,93;0;0,6890835649243141;1,3075838972899563;0,6890835649243141;-0,3864131774632252;1,3075838972899563;41,81035798211615;76,32679219946898;23,529770805993834
12:25:26.974;0;Mov;1;17350;9,93;0;0,9773980038033693;1,5540269411679433;0,9773980038033693;-0,29549242807168796;1,5540269411679433;38,27021088290048;85,42130802331614;23,194067201757868
12:25:26.999;0;Mov;1;17351;9,84;0;1,3243324791329691;2,185686771370586;1,3243324791329691;-0,20337534714804528;2,185686771370586;33,41776787621693;99,91760002441481;22,247993408001953
12:25:26.999;0;Mov;1;17352;9,84;0;1,5743644281975768;2,8460586775566883;1,5743644281975768;0,06579790643024995;2,8460586775566883;29,755546739097262;120,82277901547289;21,912289803765983
12:25:27.002;0;Mov;1;17353;9,84;0;1,567186498611408;3,6691304799798576;1,567186498611408;-0,03708609495047418;3,6691304799798576;25,391399884029664;151,73802911465805;24,872585222937712
12:25:27.002;0;Mov;1;17354;9,84;-0,6292672863513596;0,8398205630855738;4,383336798455764;0,8398205630855738;-0,6292672863513596;4,383336798455764;21,39347514267403;195,837275307474;29,908139286477248
12:25:27.002;0;Mov;1;17355;9,84;-1,1723990600299081;0,881691958086642;4,3354837755974;0,881691958086642;-1,1723990600299081;4,3354837755974;28,412732322153385;243,07992797631763;37,81243324076052
12:25:27.034;0;Mov;1;17356;9,77;-1,4654988250373853;1,3398846400341808;5,18008972441786;1,3398846400341808;-1,4654988250373853;5,18008972441786;36,37806329538866;285,8973967711417;49,653614917447435
12:25:27.035;0;Mov;1;17357;9,77;-1,8052553111743523;1,5935057327112643;6,3106173894466995;1,5935057327112643;-1,8052553111743523;6,3106173894466995;46,84591204565569;334,94064149906916;62,92916653950621
12:25:27.035;0;Mov;1;17358;9,77;-1,6569109164708395;2,1892757957701345;6,700619621112705;2,1892757957701345;-1,6569109164708395;6,700619621112705;60,8233893856624;390,2096621601001;75,50279244361705
12:25:27.035;0;Mov;1;17359;9,77;-1,8291818226035341;2,835291604358043;6,811877708517716;2,835291604358043;-1,8291818226035341;6,811877708517716;62,50190740684225;443,4034241767632;87,95434430982391
12:25:27.036;0;Mov;1;17360;9,77;-2,1737235156559955;3,1367656006805626;7,154026917325358;3,1367656006805626;-2,1737235156559955;7,154026917325358;56,031983397930844;490,2798547318949;99,9786370433668
12:25:27.037;0;Wrist;1;63660;9,95;-3,8605428098391674;-4,879811910611286;11,642640652180548;-4,879811910611286;-3,8605428098391674;11,642640652180548;60,029908139286476;207,83104953154088;-33,57036042359691
12:25:27.037;0;Wrist;1;63661;9,95;-1,7920957537308877;-7,066695341349528;12,178594317453536;-7,066695341349528;-1,7920957537308877;12,178594317453536;69,21597949156163;175,63402203436385;-32,13599047822505
12:25:27.037;0;Wrist;1;63662;9,95;-0,9821833299317911;-3,694253412350841;7,547618411816767;-3,694253412350841;-0,9821833299317911;7,547618411816767;78,85982848597675;138,64558854945525;-24,414807580797753
12:25:27.037;0;Wrist;1;63663;9,95;1,6939969853434858;-0,9762017020744956;3,5518907647175513;-0,9762017020744956;1,6939969853434858;3,5518907647175513;87,55760368663594;120,09033478804895;-22,40058595538194
12:25:27.037;0;Wrist;1;63664;9,95;7,66126934110538;-1,9105320091479232;6,9805597094637895;-1,9105320091479232;7,66126934110538;6,9805597094637895;75,0450148014771;120,27344584490494;-13,306070131534776
12:25:27.065;0;Wrist;1;63665;9,86;8,180474066896572;-3,458577322458571;2,6534501651814324;-3,458577322458571;8,180474066896572;2,6534501651814324;45,28946806237983;111,42307809686575;0,5188146610919523
12:25:27.065;0;Wrist;1;63666;9,86;4,043580431531724;-1,7251015455717642;1,9847041468932158;-1,7251015455717642;4,043580431531724;1,9847041468932158;17,60917996765038;95,73656422620319;9,369182409131138
12:25:27.065;0;Wrist;1;63667;9,86;0;-1,4176458021790215;2,781456953642384;-1,4176458021790215;0,4773339268547624;2,781456953642384;-2,7771843623157446;84,6888637958922;9,24710837122715
12:25:27.065;0;Wrist;1;63668;9,86;1,8004699850459303;-1,442768615337077;2,191668399227882;-1,442768615337077;1,8004699850459303;2,191668399227882;-15,289773247474594;72,02368236335337;4,272591326639607
12:25:27.065;0;Wrist;1;63669;9,86;2,472804908520768;-1,0635334568697166;1,3542406184194464;-1,0635334568697166;2,472804908520768;1,3542406184194464;-25,75762199774163;60,640278328806424;3,9063692129276406
12:25:27.096;0;Mov;1;17361;9,82;-1,550437916768395;2,80418728255562;7,149241710409863;2,80418728255562;-1,550437916768395;7,149241710409863;55,87939085055086;526,2611774040956;111,14841151158177
12:25:27.097;0;Mov;1;17362;9,82;-1,376970708906827;3,6344371337778862;4,329502147740104;3,6344371337778862;-1,376970708906827;4,329502147740104;40,37598803674429;566,209906308176;117,55729850154118
12:25:27.097;0;Mov;1;17363;9,82;-2,7108738402966397;-1,2932279189046907;4,879811910611286;-1,2932279189046907;-2,7108738402966397;4,879811910611286;-5,1576281014435255;566,4235358745079;119,541001617481
12:25:27.097;0;Mov;1;17364;9,82;-2,2275581663716544;-13,720658360545672;12,934672269356364;-13,720658360545672;-2,2275581663716544;12,934672269356364;-72,6950895718253;458,6016418958098;126,89596240119633
12:25:27.097;0;Mov;1;17365;9,82;-5,803375442518387;-9,784747230445266;29,90694334238716;-9,784747230445266;-5,803375442518387;29,90694334238716;-66,77449873348186;225,92852565080722;128,0861842707602
12:25:27.100;0;Wrist;1;63670;9,8;0,5311685775704215;-0,5048494030770287;0,6890835649243141;-0,5048494030770287;0,5311685775704215;0,6890835649243141;-36,01184118167669;52,095095675527205;3,8758507034516434
12:25:27.100;0;Wrist;1;63671;9,8;-0,6400341807306131;0;0,9283486792161321;-0,417517618478576;-0,6400341807306131;0,9283486792161321;-40,406506546220285;46,57124546037171;1,8921475875118259
12:25:27.100;0;Wrist;1;63672;9,8;-0,5909848561433759;0;0,6603717273667105;-0,35650503817674795;-0,5909848561433759;0,6603717273667105;-41,59672841578417;41,23050630207221;0,9155552842799157
12:25:27.100;0;Wrist;1;63673;9,8;-0,6747276461455123;0;0;-0,08613544561553926;-0,6747276461455123;0,40316172950300605;-40,46754356517228;37,11050752281258;1,281777397991882
12:25:27.100;0;Wrist;1;63674;9,8;-0,9821833299317911;0;0,900833143387402;-0,239265114291818;-0,9821833299317911;0,900833143387402;-37,995544297616505;34,11969359416486;1,0071108127079074
12:25:27.159;0;Wrist;1;63675;9,84;-1,2764794562746056;0;1,3171544303338725;-0,48690451950514235;-1,2764794562746056;1,3171544303338725;-33,082064271980954;29,145176549577318;1,3733329264198737
12:25:27.159;0;Wrist;1;63676;9,84;-1,2525529448454238;0;1,1472762468718527;-0,3816278513348033;-1,2525529448454238;1,1472762468718527;-25,788140507217626;23,46873378704184;2,0142216254158147
12:25:27.159;0;Wrist;1;63677;9,84;-0,8852809228797266;0;0,5359538440923796;-0,12441786092190694;-0,8852809228797266;0,5359538440923796;-18,25006866664632;19,043549913022247;2,685628833887753
12:25:27.159;0;Wrist;1;63678;9,84;0;0;0;0,26917325357829525;-0,3816278513348033;-0,3098483170472579;-13,824884792626728;17,700735496078373;2,9908139286477247
12:25:27.159;0;Wrist;1;63679;9,84;0;0;-0,6627643904309214;0,4091433573603015;0,1411664204124958;-0,6627643904309214;-12,146366771446882;18,89095736564226;2,5940733054597613
12:25:27.178;0;Mov;1;17366;9,95;-11,74552426984466;1,3721855019913327;27,765520569475388;1,3721855019913327;-11,74552426984466;27,765520569475388;-52,40028077028718;136,11255226294747;108,18811609241004
12:25:27.179;0;Mov;1;17367;9,95;-13,535227896969513;0,5132236939985351;24,970904416028322;0,5132236939985351;-13,535227896969513;24,970904416028322;-30,854213080233162;90,88412121951964;77,82219916379285
12:25:27.179;0;Mov;1;17368;9,95;-10,43794061098056;2,6091861667226173;19,323051774651326;2,6091861667226173;-10,43794061098056;19,323051774651326;7,660145878475295;15,10666219061861;42,756431775872066
12:25:27.179;0;Mov;1;17369;9,95;-7,418414963988159;4,738645683919797;12,788720358897672;4,738645683919797;-7,418414963988159;12,788720358897672;23,773918881801812;-26,947843867305522;14,801477095858639
12:25:27.179;0;Mov;1;17370;9,95;-5,200427449873348;6,1730399487289045;8,097928174687949;6,1730399487289045;-5,200427449873348;8,097928174687949;24,109622486037782;-53,132724997711115;-3,5706656086916717
12:25:27.179;0;Mov;1;17371;9,65;-4,053151322214423;7,325101760155034;5,0329418698690755;7,325101760155034;-4,053151322214423;5,0329418698690755;15,900143436994536;-63,600573747978146;-11,902218695638904
12:25:27.179;0;Mov;1;17372;9,65;-3,6691304799798576;8,041700682088686;3,6105106223487047;8,041700682088686;-3,6691304799798576;3,6105106223487047;9,277626880703146;-64,69924008911404;-14,374217963194678
12:25:27.179;0;Mov;1;17373;9,65;-3,4956632721182896;8,422132023071994;3,5841915074617754;8,422132023071994;-3,4956632721182896;3,5841915074617754;8,453627124851222;-63,23435163426618;-13,550218207342754
12:25:27.180;0;Mov;1;17374;9,65;-3,3951720194860684;8,547746208075198;4,701559495834223;8,547746208075198;-3,3951720194860684;4,701559495834223;10,589922788171025;-62,685018463698235;-10,681478316599017
12:25:27.181;0;Mov;1;17375;9,65;-3,2779320657979065;8,266609698782311;6,506814687795648;8,266609698782311;-3,2779320657979065;6,506814687795648;11,383404034546952;-67,3848689230018;-6,775109103671377
12:25:27.216;0;Wrist;1;63680;9,96;0;0;-0,6986541575746941;0,26917325357829525;0,18543046357615894;-0,6986541575746941;-12,024292733542893;20,050660725730154;1,6174810022278512
12:25:27.216;0;Wrist;1;63681;9,96;0;0;0;0,3433454509300516;0,22132023071993165;-0,4581927117507706;-13,855403302102726;22,27851191747795;1,0681478316599018
12:25:27.216;0;Wrist;1;63682;9,96;0;0;0;0,20576799531064027;-0,16628926337378308;0;-13,702810754722739;24,68947416608173;0,21362956633198035
12:25:27.216;0;Wrist;1;63683;9,96;0;0;0;0,38402051439901425;-0,4426404614398633;-0,34573808419103064;-10,711996826075014;26,612140263069552;-0,36622211371196634
12:25:27.217;0;Wrist;1;63684;9,96;0;0;0;0,45580004868655966;-0,37923521807382427;-0,41871395001068146;-8,301034577471237;30,823694570757166;-0,6103701895199438
12:25:27.245;0;Wrist;1;63685;9,81;0;0;0;-0,07417218990094836;-0,2560136663315989;0,19978636745334483;-6,714072084719382;36,22547074800867;-0,6103701895199438
12:25:27.245;0;Wrist;1;63686;9,81;0;0;0,7309549599253823;-0,417517618478576;-0,0358897671437727;0,7309549599253823;-7,141331217383343;36,71376689962462;0,27466658528397475
12:25:27.245;0;Wrist;1;63687;9,81;0;0;0,5287759145062105;-0,34932707878734703;-0,056227302603658026;0,5287759145062105;-6,622516556291391;33,47880489516892;0,7629627368999298
12:25:27.245;0;Wrist;1;63688;9,81;0;0;0;-0,1818414838814585;0,06340525826765496;0,30027772439687794;-5,859553819391461;30,823694570757166;0,7019257179479355
12:25:27.246;0;Wrist;1;63689;9,81;0;0;0;-0,1292031646979049;0,04187139500106815;0,31224098011146884;-5,1576281014435255;28,168584246345407;0,3967406231879635
12:25:27.273;0;Mov;1;17376;10,02;-3,3676564836573384;7,70553310113834;8,270198484756005;7,70553310113834;-3,3676564836573384;8,270198484756005;6,95822016052736;-79,92797631763665;-3,357036042359691
12:25:27.274;0;Mov;1;17377;10,02;-3,655971041749321;7,13488561281167;9,437812814722129;7,13488561281167;-3,655971041749321;9,437812814722129;-3,0823694570757163;-100,49745170445875;-1,922666096987823
12:25:27.274;0;Mov;1;17378;10,02;-4,110574758903775;6,316599017303995;10,192693868831446;6,316599017303995;-4,110574758903775;10,192693868831446;-16,388439588610492;-126,71285134434034;-3,051850947599719
12:25:27.274;0;Mov;1;17379;10,02;-4,660884521774957;5,272206984160894;10,59226699118015;5,272206984160894;-4,660884521774957;10,59226699118015;-28,229621265297403;-156,7430646687216;-6,95822016052736
12:25:27.274;0;Mov;1;17380;10,02;-5,110703032013917;4,162016567735832;10,253707045197913;4,162016567735832;-5,110703032013917;10,253707045197913;-34,363841669972835;-187,26157414471876;-13,641773735770744
12:25:27.331;0;Mov;1;17381;9,61;-5,07002805795465;3,1989747211371196;9,17462118900113;3,1989747211371196;-5,07002805795465;9,17462118900113;-35,645619067964724;-215,82689901425215;-22,980437635425886
12:25:27.331;0;Mov;1;17382;9,61;-4,854689455092013;2,4799829573198644;6,869301622058779;2,4799829573198644;-4,854689455092013;6,869301622058779;-36,22547074800867;-239,47874385814995;-33,600878933072906
12:25:27.331;0;Mov;1;17383;9,61;-4,440760711996826;1,926084170049135;4,351036294137394;1,926084170049135;-4,440760711996826;4,351036294137394;-36,65272988067263;-257,8814050721763;-44,00769066438795
12:25:27.331;0;Mov;1;17384;9,61;-3,975389921643727;1,5025848939100315;2,2383252395702993;1,5025848939100315;-3,975389921643727;2,2383252395702993;-38,57539597766045;-267,03695791497546;-54,597613452558974
12:25:27.331;0;Mov;1;17385;9,61;-3,6129032258064515;0,8721213654362621;1,2370006647312846;0,8721213654362621;-3,6129032258064515;1,2370006647312846;-41,59672841578417;-268,95962401196323;-64,88235114597003
12:25:27.332;0;Mov;1;17386;9,61;-3,521982625431074;0;1,5432599871822261;-0,04904935066506508;-3,521982625431074;1,5432599871822261;-42,3291726432081;-267,6473281044954;-73,9768669698172
12:25:27.332;0;Mov;1;17387;9,61;-3,3844051847132786;-0,9235633530877102;2,141422772911771;-0,9235633530877102;-3,3844051847132786;2,141422772911771;-39,277321695608386;-266,64021729178745;-82,67464217047639
12:25:27.332;0;Mov;1;17388;9,61;-2,913052766502884;-1,463106221579638;2,185686771370586;-1,463106221579638;-2,913052766502884;2,185686771370586;-33,90606402783288;-267,06747642445146;-90,1211584826197
12:25:27.332;0;Mov;1;17389;9,61;-2,1043368232520523;-2,051698355052339;2,00264914967803;-2,051698355052339;-2,1043368232520523;2,00264914967803;-30,18280587176122;-266,73177282021544;-96,01123081148717
12:25:27.332;0;Mov;1;17390;9,61;-1,3733818037202064;-2,6163639770958587;1,760991312715537;-2,6163639770958587;-1,3733818037202064;1,760991312715537;-30,793176061281166;-265,14481032746363;-99,06308175908688
12:25:27.365;0;Wrist;1;63690;10,2;0;0;0;-0,06220893046095347;-0,021533861403884816;0,18782311173875393;-3,814813684499649;26,39851069673757;-0,3051850947599719
12:25:27.365;0;Wrist;1;63691;10,2;0;0;0,5395428684919279;-0,25720999786370435;0,16150395214697713;0,5395428684919279;-2,807702871791742;25,208288827173682;-0,9155552842799157
12:25:27.365;0;Wrist;1;63692;10,2;0;0;0;-0,30745568378627885;0,11484726082071901;0,3385601546048616;-2,533036286507767;22,003845332193976;-1,0681478316599018
12:25:27.365;0;Wrist;1;63693;10,2;0;0;0;0,03349711525577372;-0,1866267951082644;0,07297585836884289;-2,0142216254158147;18,402661214026306;-0,9460737937559129
12:25:27.365;0;Wrist;1;63694;10,2;0;0;0;0,2715659166425062;-0,1866267951082644;-0,1339884610230949;1,403851435895871;18,341624195074314;-1,281777397991882
12:25:27.367;0;Wrist;1;63695;9,96;0;0;0;0,08135014183954131;0,1961974026602603;0,1184362330646115;4,760887478255562;20,23377178258614;-1,8921475875118259
12:25:27.367;0;Wrist;1;63696;9,96;0;0;0;-0,014355907602589877;0,07297585836884289;0,1076693014313181;3,051850947599719;18,58577227088229;-2,166814172795801
12:25:27.367;0;Wrist;1;63697;9,96;0;0;0;0,058619954491657;-0,05383465071565905;0,34573808419103064;3,2654805139316996;17,48710592974639;-2,380443739127781
12:25:27.367;0;Wrist;1;63698;9,96;0;0;0;-0,18303781541356395;-0,0023926511894857296;0,42349924633587144;5,798516800439467;17,120883816034425;-3,1128879665517135
12:25:27.367;0;Wrist;1;63699;9,96;0;0;0;-0,17466353939367352;-0,1292031646979049;0,36487929929502244;7,629627368999298;15,717032380138553;-2,7771843623157446
12:25:27.395;0;Wrist;1;63700;9,78;0;0;0;-0,18064516725096896;-0,0346934430624752;0,33018586368335523;9,12503433332316;14,007995849482711;-2,044740134891812
12:25:27.395;0;Wrist;1;63701;9,78;0;0;0;-0,11245460520731605;0,0239265114291818;0,2249092104146321;9,613330484939116;12,024292733542893;-1,7090365306558428
12:25:27.395;0;Wrist;1;63702;9,78;0;0;0;-0,08135014183954131;-0,08015381775824382;0,20457167868015075;9,552293465987121;11,169774468214973;-1,6785180211798456
12:25:27.395;0;Wrist;1;63703;9,78;0;0;0;-0,0717795342875454;-0,0358897671437727;0,14475540010719626;9,521774956511123;10,315256202887051;-1,2207403790398876
12:25:27.395;0;Wrist;1;63704;9,78;0;0;0;0,0119632557145909;-0,09211707347283471;0,04546037097036462;9,67436750389111;9,216589861751151;-0,793481246375927
12:25:27.421;0;Mov;1;17391;9,96;-1,228626433416242;-3,2121341593676567;1,4786583824808497;-3,2121341593676567;-1,228626433416242;1,4786583824808497;-34,97421185949278;-261,9708853419599;-99,30722983489487
12:25:27.421;0;Mov;1;17392;9,96;-1,8710532176046022;-3,6882717844935455;1,3949155924787133;-3,6882717844935455;-1,8710532176046022;1,3949155924787133;-37,47672963652455;-257,6982940153203;-98,9715262306589
12:25:27.421;0;Mov;1;17393;9,96;-2,701303188039796;-3,8868619247260963;1,3350993139057588;-3,8868619247260963;-2,701303188039796;1,3350993139057588;-35,24887844477676;-252,1439252906888;-100,61952574236274
12:25:27.421;0;Mov;1;17394;9,96;-3,0195258854182563;-4,086648247474593;1,360222246276742;-4,086648247474593;-3,0195258854182563;1,360222246276742;-30,396435438093203;-244,97207556382946;-104,4343394268624
12:25:27.421;0;Mov;1;17395;9,96;-2,8963043038727987;-4,345054666280099;1,848323007904294;-4,345054666280099;-2,8963043038727987;1,848323007904294;-26,337473677785578;-239,29563280129398;-109,22574541459394
12:25:27.452;0;Mov;1;17396;9,71;-2,4273447275460067;-4,76376861629078;2,6642169999542222;-4,76376861629078;-2,4273447275460067;2,6642169999542222;-27,28354747154149;-236,15222632526627;-113,83404034546953
12:25:27.452;0;Mov;1;17397;9,71;-1,936851124034852;-5,223157540360729;3,3939755985442672;-5,223157540360729;-1,936851124034852;3,3939755985442672;-32,013916440321054;-235,17563402203436;-116,70278023621326
12:25:27.452;0;Mov;1;17398;9,71;-1,4391797101504562;-5,611963351084933;3,58897671437727;-5,611963351084933;-1,4391797101504562;3,58897671437727;-38,54487746818445;-236,64052247688224;-116,70278023621326
12:25:27.452;0;Mov;1;17399;9,71;-0,8852809228797266;-5,995983954893643;3,1702627643665884;-5,995983954893643;-0,8852809228797266;3,1702627643665884;-44,61806085390789;-238,16644795068208;-114,68855861079744
12:25:27.452;0;Mov;1;17400;9,71;0;-6,230463862269967;2,4704123050630207;-6,230463862269967;-0,3050630207220679;2,4704123050630207;-48,9516891994995;-238,31904049806207;-110,62959685048982
12:25:27.456;0;Wrist;1;63705;9,96;0;0;0;0,01674855762788686;-0,11125828112601856;0,0119632557145909;9,399700918607135;8,270516067995239;-0,45777764213995786
12:25:27.456;0;Wrist;1;63706;9,96;0;0;0;0,05024567474636257;0,015552232615238368;-0,0346934430624752;8,758812219611194;7,4159978026673175;-0,21362956633198035
12:25:27.457;0;Wrist;1;63707;9,96;0;0;0;0,06819056204365291;0,015552232615238368;-0,04187139500106815;7,690664387951292;7,202368236335337;-0,3967406231879635
12:25:27.457;0;Wrist;1;63708;9,96;0;0;0;0,026319163317180778;0,01674855762788686;0,03708609495047418;7,019257179479355;7,263405255287331;-0,4272591326639607
12:25:27.457;0;Wrist;1;63709;9,96;0;0;0;-0,04904935066506508;-0,07895748622613834;0,10527665326872311;7,202368236335337;6,8666646320993685;-0,5493331705679495
12:25:27.510;0;Mov;1;17401;9,94;0;-6,407519856105228;1,926084170049135;-6,407519856105228;0,2584063293958098;1,926084170049135;-52,70546586504715;-236,79311502426222;-104,31226538895841
12:25:27.510;0;Mov;1;17402;9,94;0,6926725297173986;-6,504422322763756;1,5887204065828424;-6,504422322763756;0,6926725297173986;1,5887204065828424;-56,76442762535478;-233,61919003875852;-96,49952696310312
12:25:27.510;0;Mov;1;17403;9,94;0,8924589120723594;-6,66233701208533;1,6102541953413496;-6,66233701208533;0,8924589120723594;1,6102541953413496;-61,159092989898376;-229,46867275002288;-87,67967772453993
12:25:27.510;0;Mov;1;17404;9,94;0,8481948540070803;-6,966204088717307;1,7526169621875667;-6,966204088717307;0,8481948540070803;1,7526169621875667;-65,79790643024995;-224,58571123386335;-79,3481246375927
12:25:27.510;0;Mov;1;17405;9,94;0,7596667378765221;-7,3239053392132325;2,0146124053926204;-7,3239053392132325;0,7596667378765221;2,0146124053926204;-69,5211645863216;-219,5501571703238;-72,42042298654134
12:25:27.545;0;Wrist;1;63710;10,08;0;0;0;-0,0239265114291818;-0,08493911408343378;0,019141209515885837;7,049775688955352;6,2868129520554215;-0,7324442274239327
12:25:27.545;0;Wrist;1;63711;10,08;0;0;0;0,003588976900647469;0,10886562551261558;-0,0598162785729545;6,19525742362743;5,798516800439467;-0,5493331705679495
12:25:27.545;0;Wrist;1;63712;10,08;0;0;0;0,003588976900647469;0,1435590685750908;-0,05144199882766007;6,0121463667714465;5,005035554063539;-0,3051850947599719
12:25:27.545;0;Wrist;1;63713;10,08;0;0;0;0,009570604757942918;0,1507370279644917;-0,08972441785943175;5,21866512039552;4,24207281716361;0,09155552842799158
12:25:27.546;0;Wrist;1;63714;10,08;0;0;0;-0,009570604757942918;0,2009826989854503;-0,08493911408343378;4,119998779259621;4,211554307687613;0,15259254737998595
12:25:27.572;0;Mov;1;17406;9,74;0,8242683425778985;-7,794061098055971;2,4034182161168247;-7,794061098055971;0,8242683425778985;2,4034182161168247;-72,42042298654134;-214,54512161626027;-66,98812829981384
12:25:27.572;0;Mov;1;17407;9,74;1,1819697122867519;-8,335996391186255;3,1020722544785913;-8,335996391186255;1,1819697122867519;3,1020722544785913;-74,12945951719718;-210,76082644123662;-62,16620380260628
12:25:27.572;0;Mov;1;17408;9,74;1,861482684560686;-8,899466307565538;4,053151322214423;-8,899466307565538;1,861482684560686;4,053151322214423;-76,23523667104098;-208,89919736320078;-57,771538438062684
12:25:27.572;0;Mov;1;17409;9,74;2,712070022812586;-9,49523625141148;4,761375774407178;-9,49523625141148;2,712070022812586;4,761375774407178;-81,24027222510452;-209,8757896664327;-53,71257667775506
12:25:27.572;0;Mov;1;17410;9,74;3,191796672338023;-10,08741740928373;5,076009685811945;-10,08741740928373;3,191796672338023;5,076009685811945;-86,67256691183202;-212,0120853297525;-50,11139255958739
12:25:27.597;0;Mov;1;17411;9,81;3,3544970454268013;-10,570733321634572;4,890579222235786;-10,570733321634572;3,3544970454268013;4,890579222235786;-87,008270516068;-214,39252906888026;-46,96798608355968
12:25:27.598;0;Mov;1;17412;9,81;3,3305705339976197;-10,809998435926389;3,774407177953429;-10,809998435926389;3,3305705339976197;3,774407177953429;-79,31760612811671;-214,48408459730825;-45,07583849604785
12:25:27.598;0;Mov;1;17413;9,81;3,207348952452162;-11,057637066255683;2,4512712389751883;-11,057637066255683;3,207348952452162;2,4512712389751883;-66,28620258186591;-210,05890072328867;-44,46546830652791
12:25:27.598;0;Mov;1;17414;9,81;2,873573974959563;-11,471566286202583;1,3530441974776453;-11,471566286202583;2,873573974959563;1,3530441974776453;-51,1490218817713;-201,1169774468215;-45,77776421399579
12:25:27.598;0;Mov;1;17415;9,81;2,34360193754387;-12,2264473403119;0;-12,2264473403119;2,34360193754387;0,3864131774632252;-37,903988769188516;-188,75698110904264;-48,24976348155156
12:25:27.621;0;Wrist;1;63715;9,92;0;0;0;0,0945097216354297;0,18303781541356395;-0,16987822816686757;3,9979247413556322;4,7303689687795645;-0,18311105685598317
12:25:27.621;0;Wrist;1;63716;9,92;0;0;0;0,07656483806354335;0,40435806103511157;-0,17585985602416304;3,2349620044557024;5,584887234107486;-0,7629627368999298
12:25:27.621;0;Wrist;1;63717;9,92;0;0;0;0,26917325357829525;0,028711815205179753;-0,3098483170472579;3,9979247413556322;7,324442274239326;-2,075258644367809
12:25:27.621;0;Wrist;1;63718;9,92;0;0;0;0,3923948053205206;-0,25362103307061984;-0,32300790429395426;2,2583697012237924;8,331553086947233;-1,922666096987823
12:25:27.621;0;Wrist;1;63719;9,92;0;0;0;0,1794488357188635;0,1866267951082644;-0,3708609271523179;-1,7090365306558428;9,369182409131138;-1,6174810022278512
12:25:27.629;0;Mov;1;17416;9,92;1,7047639393292031;-13,252894489883115;-0,8769066319582202;-13,252894489883115;1,7047639393292031;-0,8769066319582202;-25,87969603564562;-174,10809656056398;-51,36265144810327
12:25:27.629;0;Mov;1;17417;9,92;1,6569109164708395;-14,195599803155615;-2,7431745830408643;-14,195599803155615;1,6569109164708395;-2,7431745830408643;-16,2968840601825;-158,8183233130894;-53,46842860194708
12:25:27.629;0;Mov;1;17418;9,92;2,4093998439741204;-15,043794061098057;-4,2637042413098545;-15,043794061098057;2,4093998439741204;-4,2637042413098545;-14,099551377910704;-141,63640247810298;-54,87228003784295
12:25:27.629;0;Mov;1;17419;9,92;3,3006623947111424;-16,12407681508835;-4,54364480651265;-16,12407681508835;3,3006623947111424;-4,54364480651265;-23,987548448133793;-122,25714896084476;-55,90990936002686
12:25:27.629;0;Mov;1;17420;9,92;4,166802251503037;-17,21871471297342;-4,907327684865871;-17,21871471297342;4,166802251503037;-4,907327684865871;-40,07080294198431;-103,09152500991851;-56,15405743583484
12:25:27.636;0;Wrist;1;63720;9,98;0;0;0;0,02990813928647725;0,3612903345019379;-0,2703695851104007;-8,6977752006592;8,606219672231209;-2,4414807580797753
12:25:27.636;0;Wrist;1;63721;9,98;0;0;0;0,239265114291818;0,4665669728690451;-0,39957273490668965;-12,17688528092288;9,491256447035127;-3,6011841181676685
12:25:27.636;0;Wrist;1;63722;9,98;0;0;-0,6053407749221777;0,44503312450407423;0,3947874385814997;-0,6053407749221777;-15,32029175695059;12,17688528092288;-5,7374797814874725
12:25:27.636;0;Wrist;1;63723;9,98;0;0;0;0,4091433573603015;0,4809228916478469;-0,468959635933256;-21,607104709006013;13,48918118839076;-8,209479049043244
12:25:27.636;0;Wrist;1;63724;9,98;0;0;0;0,19739371929074984;0,32779320061914424;-0,09809870133013016;-24,933622241889704;15,44236579485458;-11,261329996642964
12:25:27.688;0;Mov;1;17421;9,95;5,253065679647206;-18,226020081179236;-6,304635761589404;-18,226020081179236;5,253065679647206;-6,304635761589404;-47,66991180150762;-83,04086428418836;-54,414502395702996
12:25:27.688;0;Mov;1;17422;9,95;6,612091624195075;-19,047896893215736;-7,863448267311624;-19,047896893215736;6,612091624195075;-7,863448267311624;-42,695394756920074;-59,816278572954495;-49,71465193639943
12:25:27.688;0;Mov;1;17423;9,95;7,7222815637684254;-19,620935316019164;-8,697286904507584;-19,620935316019164;7,7222815637684254;-8,697286904507584;-28,412732322153385;-33,41776787621693;-42,63435773796808
12:25:27.688;0;Mov;1;17424;9,95;8,310873935666981;-19,851826914273506;-8,621918584246345;-19,851826914273506;8,310873935666981;-8,621918584246345;-9,979552598651082;-4,821924497207556;-31,61717581713309
12:25:27.688;0;Mov;1;17425;9,95;8,079983291116061;-19,693912701803644;-7,728263191625721;-19,693912701803644;8,079983291116061;-7,728263191625721;10,43733024079104;23,59080782494583;-17,426068910794395
12:25:27.696;0;Wrist;1;63725;10,05;0;0;0;0,25003203847430344;0,22849819010933256;0,06220893046095347;-25,208288827173682;16,907254249702444;-14,526810510574663
12:25:27.696;0;Wrist;1;63726;10,05;0;0;0;0,3014740559289834;0,20337534714804528;0,04904935066506508;-24,750511185033723;18,341624195074314;-17,670216986602373
12:25:27.696;0;Wrist;1;63727;10,05;0;0;0;-0,26079899246002075;-0,1674855800042726;0,34932707878734703;-23,865474410229805;18,402661214026306;-19,196142460402235
12:25:27.696;0;Wrist;1;63728;10,05;0;0;0;-0,28352917235709707;-0,22371287888252664;0,29309976500747703;-21,39347514267403;16,2968840601825;-18,03643910031434
12:25:27.696;0;Wrist;1;63729;10,05;0;0;0;-0,21773125102523117;-0,2715659166425062;0,21055330653744622;-19,501327555162206;14,496292001098666;-15,503402813806574
12:25:27.725;0;Wrist;1;63730;9,96;0;0;0;-0,4342662003215888;-0,2859218056180761;0,354112375112537;-16,815698721274455;13,458662678914761;-13,000885036774804
12:25:27.725;0;Wrist;1;63731;9,96;0;0;0;-0,297885061332667;-0,37923521807382427;0,27635121296769616;-12,93984801782281;12,756736960966826;-9,735404522843105
12:25:27.726;0;Wrist;1;63732;9,96;0;0;0;-0,24165777735602892;-0,03349711525577372;0,46776330440115055;-10,101626636555071;13,794366283150731;-6,042664876247444
12:25:27.726;0;Wrist;1;63733;9,96;0;0;0;0,02273018548518231;-0,39119847378841516;0,12441786092190694;-5,890072328867458;16,571550645466477;-3,967406231879635
12:25:27.726;0;Wrist;1;63734;9,96;0;0;0;0,12681051653530992;-0,16389660030957212;0,2942960965395825;-8,392590105899227;16,479995117038484;-0,793481246375927
12:25:27.752;0;Mov;1;17426;9,98;7,28801557206946;-18,995258186590167;-6,225678178502762;-18,995258186590167;7,28801557206946;-6,225678178502762;28,68739890743736;48,524430066835535;-2,7771843623157446
12:25:27.752;0;Mov;1;17427;9,98;5,900277909176916;-17,752275536362806;-4,865456289864803;-17,752275536362806;5,900277909176916;-4,865456289864803;40,2539139988403;69,00234992522965;10,162663655507066
12:25:27.752;0;Mov;1;17428;9,98;4,013672292245246;-16,331039994506668;-3,6643452730643635;-16,331039994506668;4,013672292245246;-3,6643452730643635;46,63228247932371;85,8790856654561;20,32532731101413
12:25:27.752;0;Mov;1;17429;9,98;-0,654390099509415;5,406195162053285;-2,207220679342021;5,406195162053285;-0,654390099509415;-2,207220679342021;53,59050263985107;85,54338206122013;24,445326090273753
12:25:27.753;0;Mov;1;17430;9,98;-6,220892971587268;16,749753944517348;10,48340079195532;16,749753944517348;-6,220892971587268;10,48340079195532;97,811822870571;63,35642567217017;21,72917874691
12:25:27.785;0;Wrist;1;63735;9,84;0;0;0,6567827625736259;0,18423414694566942;-0,028711815205179753;0,6567827625736259;-8,880886257515183;20,53895687734611;0,7019257179479355
12:25:27.785;0;Wrist;1;63736;9,84;0;0;0;0,14236275194460127;0,025122837373181287;0,46776330440115055;-7,690664387951292;28,07702871791742;0,4882961516159551
12:25:27.785;0;Wrist;1;63737;9,84;0;0;0,9127963991019928;-0,08493911408343378;0,03947874311306917;0,9127963991019928;-8,514664143803216;33,02102725302896;0,3357036042359691
12:25:27.786;0;Wrist;1;63738;9,84;0;0;1,0144841322824794;0,2476394052133244;0,15552232428968168;1,0144841322824794;-5,493331705679495;45,07583849604785;0,6103701895199438
12:25:27.786;0;Wrist;1;63739;9,84;0;0;1,1676137339014863;0,297885061332667;0,23089083827192755;1,1676137339014863;1,1902218695638904;58,50398266548662;-0,640888698995941
12:25:27.810;0;Mov;1;17431;9,71;-4,489810155796991;17,194788201544238;-5,554539914395581;17,194788201544238;-4,489810155796991;-5,554539914395581;109,65300454725791;107,48619037446211;56,64235358745079
12:25:27.810;0;Mov;1;17432;9,71;-8,544157422101504;1,162828526985992;-18,191326258125553;1,162828526985992;-8,544157422101504;-18,191326258125553;93,5392315439314;209,41801202429272;79,89745780816065
12:25:27.810;0;Mov;1;17433;9,71;-2,197650027085177;-14,24704161198767;2,3184790051728874;-14,24704161198767;-2,197650027085177;2,3184790051728874;85,97064119388409;247,01681569872127;47,761467329935606
12:25:27.811;0;Mov;1;17434;9,71;6,767613948484756;-15,371587649159215;18,66746459852901;-15,371587649159215;6,767613948484756;18,66746459852901;48,9211706900235;229,80437635425886;-32,19702749717704
12:25:27.811;0;Mov;1;17435;9,71;19,214184621723074;-2,5996155144657735;12,61166436506241;-2,5996155144657735;19,214184621723074;12,61166436506241;46,84591204565569;191,44260994293037;-40,040284432508315
12:25:27.842;0;Mov;1;17436;9,83;18,82298692281869;0;7,5021577539902955;-0,47254860072634053;18,82298692281869;7,5021577539902955;47,27317117831965;186,13238929410687;23,59080782494583
12:25:27.842;0;Mov;1;17437;9,83;5,670583208716086;-4,919290940580462;6,043836977752006;-4,919290940580462;5,670583208716086;6,043836977752006;16,571550645466477;185,64409314249093;59,7857600634785
12:25:27.842;0;Mov;1;17438;9,83;-5,187267773216956;-4,343858245338298;4,803247169408246;-4,343858245338298;-5,187267773216956;4,803247169408246;-11,871700186162908;173,19254127628406;46,29657887508774
12:25:27.842;0;Mov;1;17439;9,83;-7,124118778038881;-2,4393079832605977;3,0936980231635487;-2,4393079832605977;-7,124118778038881;3,0936980231635487;-18,433179723502302;163,85387737662893;19,98962370677816
12:25:27.842;0;Mov;1;17440;9,83;-3,2671652310251167;-2,1390301694540237;1,3554369201483198;-2,1390301694540237;-3,2671652310251167;1,3554369201483198;-13,336588641010772;159,7338785973693;5,3102206488235115
12:25:27.898;0;Mov;1;17441;9,96;-3,3317667165135654;-1,3985046168782618;8,376671842097233;-1,3985046168782618;-3,3317667165135654;8,376671842097233;7,049775688955352;156,5294351023896;1,5259254737998595
12:25:27.898;0;Mov;1;17442;9,96;-5,401409955137791;-5,533005767998291;8,692502174443801;-5,533005767998291;-5,401409955137791;8,692502174443801;58,19879757072665;153,59965819269388;-3,1434064760277107
12:25:27.898;0;Mov;1;17443;9,96;-1,8064516129032258;-4,818799687948241;4,542448385570848;-4,818799687948241;-1,8064516129032258;4,542448385570848;61,555833613086335;134,03729361857967;-8,819849238563188
12:25:27.898;0;Mov;1;17444;9,96;2,417774075289163;-1,7621876144444106;3,526767832346568;-1,7621876144444106;2,417774075289163;3,526767832346568;57,74101992858669;112,82692953276162;-8,178960539567248
12:25:27.898;0;Mov;1;17445;9,96;0;-2,4799829573198644;4,011279927213355;-2,4799829573198644;0,1818414838814585;4,011279927213355;50,75228125858333;99,58189642017884;-2,5940733054597613
12:25:27.927;0;Mov;1;17446;9,95;0;-2,641486909466842;2,563725747322001;-2,641486909466842;0,4294808741931669;2,563725747322001;36,43910031434065;81,42338328196051;0,7629627368999298
12:25:27.928;0;Mov;1;17447;9,95;0,7991454698133793;-0,9953428873752556;1,4798548034226509;-0,9953428873752556;0,7991454698133793;1,4798548034226509;26,062807092501604;60,640278328806424;1,7090365306558428
12:25:27.928;0;Mov;1;17448;9,95;0;-0,8709250041009247;0,9355266088023011;-0,8709250041009247;0,22132023071993165;0,9355266088023011;19,47080904568621;49,501022370067446;1,7700735496078372
12:25:27.928;0;Mov;1;17449;9,95;0;-0,5730399725714896;0;-0,5730399725714896;0,3026703874610889;0,44503312450407423;16,266365550706503;40,55909909360027;1,1902218695638904
12:25:27.928;0;Mov;1;17450;9,95;0,7919675402272103;0;0;0,31582994490455335;0,7919675402272103;0,18303781541356395;13,672292245246743;35,00473036896878;0,3051850947599719
12:25:27.965;0;Wrist;1;63740;10,56;0;0,7189917042107914;0;0,7189917042107914;0,11365092928861355;0,2667806203173162;3,7537766655476545;62,92916653950621;-3,2654805139316996
12:25:27.965;0;Wrist;1;63741;10,56;0;0,6854945405247658;1,0707113864558855;0,6854945405247658;-0,0693868861249504;1,0707113864558855;4,150517288735618;60,45716727195044;-7,660145878475295
12:25:27.967;0;Wrist;1;63742;10,56;-0,5048494030770287;0;0;0,4019653979709006;-0,5048494030770287;0,07536851398224585;9,094515823847164;62,990203558458205;-9,704886013367107
12:25:27.967;0;Wrist;1;63743;10,56;0;0;1,1951292697302163;0,23567614949873347;-0,22849819010933256;1,1951292697302163;3,662221137119663;63,41746269112217;-7,293923764763329
12:25:27.967;0;Wrist;1;63744;10,56;0;0,884084621150853;1,7274941490295115;0,884084621150853;-0,46417433960806603;1,7274941490295115;10,101626636555071;76,72353282265694;-6,927701651051363
12:25:27.968;0;Wrist;1;63745;10,33;0;2,058876403851436;1,589916708311716;2,058876403851436;-0,34573808419103064;1,589916708311716;24,719992675557727;99,9481185338908;-7,17184972685934
12:25:27.969;0;Wrist;1;63746;10,33;-0,5706473095072787;3,2671652310251167;1,6521255903424177;3,2671652310251167;-0,5706473095072787;1,6521255903424177;38,78902554399243;116,3975951414533;-12,543107394634847
12:25:27.969;0;Wrist;1;63747;10,33;-0,588592193079165;3,4466140667439804;2,886733651615955;3,4466140667439804;-0,588592193079165;2,886733651615955;52,308725241859186;136,26514481032746;-19,01303140354625
12:25:27.969;0;Wrist;1;63748;10,33;-0,6914761683820613;4,031617175817133;4,379748012482071;4,031617175817133;-0,6914761683820613;4,379748012482071;66,89657277138585;178,93002105777154;-26,062807092501604
12:25:27.969;0;Wrist;1;63749;10,33;0;2,6438795129245887;2,8496474635303812;2,6438795129245887;-0,09211707347283471;2,8496474635303812;79,4091616565447;232,7951902829066;-28,504287850581377
12:25:27.970;0;Wrist;1;63750;10,22;0;3,056611835077975;4,58790856654561;3,056611835077975;-0,27635121296769616;4,58790856654561;85,51286355174413;281,5942869350261;-33,90606402783288
12:25:27.970;0;Wrist;1;63751;10,22;0;2,8795556028168585;5,104721404156621;2,8795556028168585;-0,11125828112601856;5,104721404156621;98,78841517380292;347,636341441084;-44,22132023071993
12:25:27.970;0;Wrist;1;63752;10,22;0,532364879299295;4,812818060090946;7,427985854670858;4,812818060090946;0,532364879299295;7,427985854670858;121,31107516708884;420,14831995605334;-63,57005523850215
12:25:27.970;0;Wrist;1;63753;10,22;0;5,414569631794183;5,6992949270607625;5,414569631794183;0,11006195704472106;5,6992949270607625;145,26810510574663;488,876003295999;-84,41419721060824
12:25:27.970;0;Wrist;1;63754;10,22;-0,7812005862414929;4,786498706778161;5,9122411648915065;4,786498706778161;-0,7812005862414929;5,9122411648915065;174,77950376903593;524,0333262123478;-104,09863582262642
12:25:27.971;0;Wrist;1;63755;9,98;0;6,088100737784966;7,240162549211097;6,088100737784966;0,007177953801294938;7,240162549211097;225,59282204657126;563,9820551164281;-133,91521958067568
12:25:27.972;0;Wrist;1;63756;9,98;0;8,326425977355266;7,26648142567217;8,326425977355266;0,39837643317781607;7,26648142567217;274,20880764183477;606,4027832880643;-171,8192083498642
12:25:27.972;0;Wrist;1;63757;9,98;0;10,159196943571276;1,4152531987212744;10,159196943571276;0,4306772057252724;1,4152531987212744;295,48020874660483;666,1885433515428;-215,46067690054016
12:25:27.972;0;Wrist;1;63758;9,98;7,183935056611835;-16,098954359569078;21,859261986144595;-16,098954359569078;7,183935056611835;21,859261986144595;282,570879238258;609,9734488967558;-249,15311136204107
12:25:27.972;0;Wrist;1;63759;9,98;15,900363742484817;-11,538560136722923;36,764282662434766;-11,538560136722923;15,900363742484817;36,764282662434766;191,10690633869442;236,03015228736228;-224,21948912015137
12:25:27.989;0;Mov;1;17451;9,95;0,6208929954298532;0;0;0,3696645956202124;0,6208929954298532;0,21773125102523117;12,26844080935087;35,37095248268074;-0,9765923032319102
12:25:27.989;0;Mov;1;17452;9,95;0,8290536090998566;0;0;0,13279214439260537;0,8290536090998566;0,18782311173875393;10,956144901882992;34,882656331064794;-2,4414807580797753
12:25:27.989;0;Mov;1;17453;9,95;0,7249733320680868;0;0;0,32779320061914424;0,7249733320680868;0,0693868861249504;6,19525742362743;32,563249610889;-4,272591326639607
12:25:27.989;0;Mov;1;17454;9,95;0;0;0;0,06579790643024995;0,2631916257209998;0,236872466129223;3,2349620044557024;32,47169408246101;-5,7374797814874725
12:25:27.989;0;Mov;1;17455;9,95;0;0;0;-0,30027772439687794;-0,0119632557145909;0,3265968988902707;1,6785180211798456;31,40354625080111;-5,584887234107486
12:25:27.996;0;Wrist;1;63760;9,96;16,230550172429577;12,793506042664877;36,735568559831535;12,793506042664877;16,230550172429577;36,735568559831535;125,43107394634846;11,169774468214973;-158,11639759514145
12:25:27.996;0;Wrist;1;63761;9,96;16,4207644123661;9,300235374004334;29,40329065828425;9,300235374004334;16,4207644123661;29,40329065828425;105,38041322061831;-44,67909787285989;-104,03759880367443
12:25:27.996;0;Wrist;1;63762;9,96;9,905575731681264;9,97615932187872;15,261525505844295;9,97615932187872;9,905575731681264;15,261525505844295;13,519699697866756;-144,4135868404187;-38,69747001556444
12:25:27.996;0;Wrist;1;63763;9,96;3,785174251152074;11,801751762443923;5,690920934171575;11,801751762443923;3,785174251152074;5,690920934171575;-27,253028962065493;-167,08883938108463;-14,404736472670674
12:25:27.996;0;Wrist;1;63764;9,96;1,0096988061540575;11,704849772637104;2,7467636074404127;11,704849772637104;1,0096988061540575;2,7467636074404127;-36,255989257484664;-162,0838038270211;-11,07821893978698
12:25:28.049;0;Mov;1;17456;9,95;0;0;0;-0,1914120914334544;-0,24524674214911343;0,22012391408944212;1,0681478316599018;27,863399151585437;-4,608294930875576
12:25:28.049;0;Mov;1;17457;9,95;-0,5479170998069705;0;0;-0,021533861403884816;-0,5479170998069705;0,015552232615238368;1,9531846064638203;25,97125156407361;-2,71614734336375
12:25:28.049;0;Mov;1;17458;9,95;-0,6675496569528794;0;0;-0,03947874311306917;-0,6675496569528794;0,04306772280776963;4,425183874019593;25,727103488265634;-0,061037018951994385
12:25:28.049;0;Mov;1;17459;9,95;-0,5132236939985351;0;0;-0,37564622347750787;-0,5132236939985351;0,26917325357829525;7,202368236335337;24,628437147129734;2,4719992675557725
12:25:28.049;0;Mov;1;17460;9,95;0;0;0;-0,22251656225203711;-0,11365092928861355;0,21174962316793572;8,301034577471237;20,813623462630087;3,7537766655476545
12:25:28.056;0;Wrist;1;63765;9,96;0,9893612595179602;11,043281922360912;3,116428113650929;11,043281922360912;0,9893612595179602;3,116428113650929;-27,436140018921474;-157,96380504776147;-12,93984801782281
12:25:28.056;0;Wrist;1;63766;9,96;2,2801966345713676;10,441529396954254;4,602264664143803;10,441529396954254;2,2801966345713676;4,602264664143803;-9,03347880489517;-159,58128604998933;-11,62755211035493
12:25:28.056;0;Wrist;1;63767;9,96;3,5614611785485395;10,281222342600786;5,424140045625172;10,281222342600786;3,5614611785485395;5,424140045625172;-1,6174810022278512;-169,7744682149724;-3,1128879665517135
12:25:28.056;0;Wrist;1;63768;9,96;4,183550714133122;10,156804101687674;5,11429181798761;10,156804101687674;4,183550714133122;5,11429181798761;-6,622516556291391;-182,50068666646322;10,681478316599017
12:25:28.056;0;Wrist;1;63769;9,96;3,8055117381817074;10,089810251167332;3,958641459013642;10,089810251167332;3,8055117381817074;3,958641459013642;-19,959105197302165;-193,7009796441542;26,459547715689567
12:25:28.078;0;Mov;1;17461;9,96;0;0;0;0,14236275194460127;-0,03230079117447623;0,14834437980189671;10,43733024079104;18,37214270455031;3,4180730613116856
12:25:28.078;0;Mov;1;17462;9,96;0;0;0;-0,12441786092190694;-0,16628926337378308;0,0717795342875454;12,146366771446882;17,548142948698384;3,173924985503708
12:25:28.079;0;Mov;1;17463;9,96;0;0;0;0,06101260637965598;-0,06699423051154745;-0,03708609495047418;11,261329996642964;15,167699209570605;3,326517532883694
12:25:28.079;0;Mov;1;17464;9,96;0;0;0;0,08015381775824382;-0,16150395214697713;-0,0717795342875454;10,132145146031068;14,618366039002655;3,9063692129276406
12:25:28.079;0;Mov;1;17465;9,96;0;0;0;0,0358897671437727;-0,16030763551648763;-0,06819056204365291;10,773033845027008;14,587847529526657;4,394665364543596
12:25:28.101;0;Wrist;1;63770;9,89;2,86998518898587;9,784747230445266;3,4346508110293894;9,784747230445266;2,86998518898587;3,4346508110293894;-33,845027008880884;-201,66631061738946;39,00265511032441
12:25:28.101;0;Wrist;1;63771;9,89;2,0505021725363934;9,074129459517197;3,712198295922727;9,074129459517197;2,0505021725363934;3,712198295922727;-40,13183996093631;-209,38749351481673;47,39524521622364
12:25:28.101;0;Wrist;1;63772;9,89;1,5516343377101962;8,280965796380505;3,836616298409986;8,280965796380505;1,5516343377101962;3,836616298409986;-38,27021088290048;-221,01504562517167;53,2547990356151
12:25:28.101;0;Wrist;1;63773;9,89;1,3075838972899563;7,545225569933164;2,9298014675588244;7,545225569933164;1,3075838972899563;2,9298014675588244;-31,769768364513077;-234,41267128513442;58,41242713705863
12:25:28.101;0;Wrist;1;63774;9,89;1,282461084131901;6,773595576342052;1,3362957348475601;6,773595576342052;1,282461084131901;1,3362957348475601;-26,917325357829522;-243,5377056184576;62,71553697317423
12:25:28.145;0;Wrist;1;63775;9,96;1,5791497543259987;5,713651024658955;0,6137150062372204;5,713651024658955;1,5791497543259987;0,6137150062372204;-26,0933256019776;-245,00259407330546;65,06546220282601
12:25:28.145;0;Wrist;1;63776;9,96;2,325657053971984;4,359410287026582;1,5348857558671833;4,359410287026582;2,325657053971984;1,5348857558671833;-27,893917661061433;-243,17148350474562;67,50694296090579
12:25:28.145;0;Wrist;1;63777;9,96;3,219312208166753;2,816150538270211;3,231275463881344;2,816150538270211;3,219312208166753;3,231275463881344;-30,671102023377177;-244,3311868648335;72,7256080813013
12:25:28.145;0;Wrist;1;63778;9,96;3,632044530320139;1,5145481496246223;4,059132950071718;1,5145481496246223;3,632044530320139;4,059132950071718;-31,434064760277106;-250,61799981688895;82,03375347148045
12:25:28.145;0;Wrist;1;63779;9,96;3,311429229483932;0;3,9933348052156132;0,22132023071993165;3,311429229483932;3,9933348052156132;-28,107547227393415;-258,3391827143162;93,14249092074343
12:25:28.168;0;Mov;1;17466;10,07;0;0;0;-0,01674855762788686;-0,0957060457167272;0,028711815205179753;9,643848994415112;14,404736472670674;4,913480025635548
12:25:28.168;0;Mov;1;17467;10,07;0;0;0;0,08493911408343378;0;0,04546037097036462;9,155552842799157;13,733329264198737;5,127109591967528
12:25:28.169;0;Mov;1;17468;10,07;0;0;0;0,07536851398224585;0,0346934430624752;0,02990813928647725;10,132145146031068;13,519699697866756;4,974517044587542
12:25:28.169;0;Mov;1;17469;10,07;0;0;0;0,05024567474636257;0,040675070919770656;-0,0346934430624752;9,949034089175084;13,824884792626728;5,1576281014435255
12:25:28.169;0;Mov;1;17470;10,07;0;0;0;0,07776116214484084;0,04187139500106815;0,08733176969683676;8,453627124851222;15,137180700094607;5,340739158299509
12:25:28.202;0;Mov;1;17471;9,98;0;0;0;0,11484726082071901;0,06579790643024995;-0,0705832102062479;7,843256935331278;15,10666219061861;5,249183629871517
12:25:28.203;0;Mov;1;17472;9,98;0;0;0;0,11365092928861355;0,04546037097036462;0,05503097852236053;7,5685903500473035;16,479995117038484;5,279702139347514
12:25:28.203;0;Mov;1;17473;9,98;0;0;0;0,05024567474636257;-0,0358897671437727;0,0119632557145909;6,225775933103427;16,2968840601825;4,8829615161595505
12:25:28.203;0;Mov;1;17474;9,98;0;0;0;0,09092074194072924;0,0346934430624752;0,05503097852236053;3,295999023407697;16,51051362651448;5,249183629871517
12:25:28.203;0;Mov;1;17475;9,98;0;0;0;0,0945097216354297;0,04306772280776963;0,04546037097036462;1,6174810022278512;16,84621723075045;5,340739158299509
12:25:28.214;0;Wrist;1;63780;9,99;3,0027771843623157;-1,118564409314249;3,402350068285165;-1,118564409314249;3,0027771843623157;3,402350068285165;-21,698660237434005;-264,0156254768517;102,87789544358654
12:25:28.214;0;Wrist;1;63781;9,99;3,3198034607989744;-2,5314250045777764;3,2599871822260202;-2,5314250045777764;3,3198034607989744;3,2599871822260202;-17,120883816034425;-265,72466200750756;110,69063386944181
12:25:28.214;0;Wrist;1;63782;9,99;3,80311913472396;-3,8760948515274514;3,777996202352977;-3,8760948515274514;3,80311913472396;3,777996202352977;-17,334513382366406;-263,9240699484237;118,22870571001312
12:25:28.214;0;Wrist;1;63783;9,99;4,080666619617298;-4,939628189184241;4,1811578722495195;-4,939628189184241;4,080666619617298;4,1811578722495195;-22,431104464857935;-261,9708853419599;126,52974028748436
12:25:28.214;0;Wrist;1;63784;9,99;3,7684255500961332;-5,635889862514115;4,084255405590991;-5,635889862514115;3,7684255500961332;4,084255405590991;-29,267250587481307;-260,475478377636;133,7626270332957
12:25:28.265;0;Wrist;1;63785;9,96;3,3389447653126623;-6,162273113956115;3,7947449034089176;-6,162273113956115;3,3389447653126623;3,7947449034089176;-32,92947172460097;-257,17947935422836;138,0962553788873
12:25:28.265;0;Wrist;1;63786;9,96;3,072164115192114;-6,564238601336711;3,41909853091525;-6,564238601336711;3,072164115192114;3,41909853091525;-33,661915952024906;-252,69325846125676;139,68321787163916
12:25:28.265;0;Wrist;1;63787;9,96;3,2205083906826992;-6,982952551347392;3,1331768147068697;-6,982952551347392;3,2205083906826992;3,1331768147068697;-34,45539719840083;-245,91814935758538;138,21832941679128
12:25:28.265;0;Wrist;1;63788;9,96;3,9933348052156132;-7,352617057557909;3,061397280419324;-7,352617057557909;3,9933348052156132;3,061397280419324;-37,59880367442854;-237,28141117587816;135,34958952604754
12:25:28.265;0;Wrist;1;63789;9,96;4,8271736808374275;-7,772527428510392;3,511215552232429;-7,772527428510392;4,8271736808374275;3,511215552232429;-43,305764946440014;-228,095339823603;132,3892941068758
12:25:28.288;0;Mov;1;17476;10,2;0;0;0;0,0705832102062479;0,14834437980189671;0,040675070919770656;-0,21362956633198035;17,426068910794395;5,249183629871517
12:25:28.288;0;Mov;1;17477;10,2;0;0;0;0,07776116214484084;0,19021577480296487;0,0466566987770661;-1,8005920590838342;17,73125400555437;4,8829615161595505
12:25:28.289;0;Mov;1;17478;10,2;0;0;0;0,16150395214697713;0,0945097216354297;0,009570604757942918;-2,6245918149357585;17,365031891842403;4,486220892971588
12:25:28.289;0;Mov;1;17479;10,2;0;0;0;0,10527665326872311;0,056227302603658026;-0,0023926511894857296;-3,2349620044557024;17,456587420270395;4,425183874019593
12:25:28.289;0;Mov;1;17480;10,2;0;0;0;0,0717795342875454;0,11245460520731605;0,04546037097036462;-5,066072573015534;17,700735496078373;4,638813440351573
12:25:28.290;0;Mov;1;17481;9,97;0;0;0;0,08972441785943175;0,1818414838814585;0,0358897671437727;-7,599108859523301;17,91436506241035;4,852443006683553
12:25:28.290;0;Mov;1;17482;9,97;0;0;0;0,10049134949272515;0,21174962316793572;-0,04187139500106815;-10,284737693411055;18,921475875118258;4,791405987731559
12:25:28.290;0;Mov;1;17483;9,97;0;0;0;-0,025122837373181287;0,363682967762917;0,22251656225203711;-14,55732902005066;20,142216254158146;4,7303689687795645
12:25:28.290;0;Mov;1;17484;9,97;0;0;0;0,03947874311306917;0,18543046357615894;0,18543046357615894;-14,191106906338694;19,165623950926236;3,173924985503708
12:25:28.290;0;Mov;1;17485;9,97;0;0;0;0,1064729773500206;-0,0598162785729545;0,14714804826979125;-11,505478072450941;17,822809533982362;2,380443739127781
12:25:28.296;0;Wrist;1;63790;9,96;5,528220561082796;-8,266609698782311;4,292416436506241;-8,266609698782311;5,528220561082796;4,292416436506241;-46,87643055513169;-221,28971221045563;130,588702047792
12:25:28.296;0;Wrist;1;63791;9,96;5,840461630603961;-8,592010444959868;4,227814474166082;-8,592010444959868;5,840461630603961;4,227814474166082;-45,808282723471784;-218,97030549027986;131,3821832941679
12:25:28.296;0;Wrist;1;63792;9,96;5,463619075594348;-8,75830008087405;3,3616748558000427;-8,75830008087405;5,463619075594348;3,3616748558000427;-41,108432264168215;-218,75667592394788;132,57240516373182
12:25:28.296;0;Wrist;1;63793;9,96;4,7446273117770925;-8,822901089510788;2,663020817438276;-8,822901089510788;4,7446273117770925;2,663020817438276;-31,342509231849117;-216,80349131748406;132,32825708792382
12:25:28.296;0;Wrist;1;63794;9,96;4,12732322153386;-8,942533646656697;2,8125615138706626;-8,942533646656697;4,12732322153386;2,8125615138706626;-17,05984679708243;-213,32438123722036;130,252998443556
12:25:28.348;0;Mov;1;17486;9,96;0;0;0;-0,0358897671437727;0,0346934430624752;0,17825251908837397;-10,132145146031068;17,365031891842403;2,838221381267739
12:25:28.348;0;Mov;1;17487;9,96;0;0;0;-0,13757744071779535;-0,015552232615238368;0,20696432684274574;-8,423108615375225;15,594958342234566;3,204443494979705
12:25:28.348;0;Mov;1;17488;9,96;0;0;0;-0,14475540010719626;-0,08972441785943175;0,119632557145909;-6,74459059419538;13,519699697866756;3,448591570787683
12:25:28.348;0;Mov;1;17489;9,96;0;0;0;-0,1076693014313181;-0,08972441785943175;0,0598162785729545;-5,096591082491531;11,688589129306925;4,272591326639607
12:25:28.348;0;Mov;1;17490;9,96;0;0;0;0,08733176969683676;0,1411664204124958;0,14475540010719626;-4,150517288735618;10,589922788171025;4,119998779259621
12:25:28.356;0;Wrist;1;63795;9,96;3,5004487174596393;-9,100448812829981;3,390386812570574;-9,100448812829981;3,5004487174596393;3,390386812570574;-3,2654805139316996;-210,30304879909664;127,41477706228828
12:25:28.356;0;Wrist;1;63796;9,96;2,3507797479171115;-9,399530205694754;3,789959458067568;-9,399530205694754;2,3507797479171115;3,789959458067568;6,042664876247444;-208,07519760734885;122,44026001770074
12:25:28.356;0;Wrist;1;63797;9,96;1,0360179210409863;-9,720145268105107;4,593890194402905;-9,720145268105107;1,0360179210409863;4,593890194402905;12,970366527298808;-206,79342020935698;113,83404034546953
12:25:28.356;0;Wrist;1;63798;9,96;0;-10,002478675191504;5,394231906338694;-10,002478675191504;-0,0957060457167272;5,394231906338694;19,959105197302165;-206,518753624073;102,0844141972106
12:25:28.356;0;Wrist;1;63799;9,96;-0,9522751906453139;-10,247725417340616;5,294937074648274;-10,247725417340616;-0,9522751906453139;5,294937074648274;23,194067201757868;-208,13623462630085;88,0458998382519
12:25:28.387;0;Mov;1;17491;10;0;0;0;0,07895748622613834;0,021533861403884816;0,1184362330646115;-3,2654805139316996;10,742515335551012;3,5096285897396773
12:25:28.388;0;Mov;1;17492;10;0;0;0;0,07536851398224585;0,020337535459885328;0,0837427900021363;-1,3428144169438765;10,52888576921903;3,5096285897396773
12:25:28.388;0;Mov;1;17493;10;0;0;0;0,05742363041035951;0,040675070919770656;0,1184362330646115;0,24414807580797754;11,07821893978698;3,47911008026368
12:25:28.388;0;Mov;1;17494;10;0;0;0;-0,027515489261180266;0,08015381775824382;0,07417218990094836;1,403851435895871;11,291848506118962;3,1128879665517135
12:25:28.388;0;Mov;1;17495;10;0;0;0;0,16389660030957212;0,052638326634361556;0,0346934430624752;2,838221381267739;11,688589129306925;2,4414807580797753
12:25:28.389;0;Wrist;1;63800;9,85;-1,8889981011764885;-11,09472373119297;5,108310190130314;-11,09472373119297;-1,8889981011764885;5,108310190130314;21,698660237434005;-208,6855677968688;71,90160832544939
12:25:28.389;0;Wrist;1;63801;9,85;-2,5314250045777764;-11,946507728812525;5,128647915585803;-11,946507728812525;-2,5314250045777764;5,128647915585803;17,91436506241035;-208,53297524948883;53,49894711142308
12:25:28.389;0;Wrist;1;63802;9,85;-2,779064350184637;-12,738474494155705;4,357017921994689;-12,738474494155705;-2,779064350184637;4,357017921994689;12,695699942014832;-208,50245674001283;33,753471480452895
12:25:28.389;0;Wrist;1;63803;9,85;-3,0386669515060882;-13,44550347911008;2,410596026490066;-13,44550347911008;-3,0386669515060882;2,410596026490066;9,12503433332316;-204,99282815027314;14,313180944242683
12:25:28.389;0;Wrist;1;63804;9,85;-3,0625934629352702;-14,097500915555285;0;-14,097500915555285;-3,0625934629352702;0,09092074194072924;9,704886013367107;-194,31134983367411;-4,089480269783624
12:25:28.438;0;Mov;1;17496;9,96;0;0;0;0,29549242807168796;-0,020337535459885328;0,00598162785729545;4,24207281716361;12,756736960966826;2,2583697012237924
12:25:28.438;0;Mov;1;17497;9,96;0;0;0;0,15552232428968168;-0,16868191153637807;0,08852809377813425;5,249183629871517;14,984588152714622;2,71614734336375
12:25:28.438;0;Mov;1;17498;9,96;0;0;0;0,2715659166425062;-0,17346720786156805;0,06699423051154745;6,591998046815394;17,73125400555437;3,5706656086916717
12:25:28.438;0;Mov;1;17499;9,96;0;0;0;0,3014740559289834;-0,1507370279644917;0,13997008888039034;7,38547929319132;20,264290292062135;4,638813440351573
12:25:28.438;0;Mov;1;17500;9,96;0;0;0;0,415124985217597;-0,1543260076591922;0,1435590685750908;7,4159978026673175;22,73628955961791;5,981627857295449
12:25:28.447;0;Wrist;1;63805;9,96;-2,5553515160069584;-14,775817705313273;-1,5301004297387615;-14,775817705313273;-2,5553515160069584;-1,5301004297387615;11,749626148258919;-176,94631794183172;-21,149327066866054
12:25:28.447;0;Wrist;1;63806;9,96;-1,8172185668889431;-15,456526383251441;-2,0995513779107027;-15,456526383251441;-1,8172185668889431;-2,0995513779107027;12,207403790398876;-156,77358317819758;-34,638508255256816
12:25:28.447;0;Wrist;1;63807;9,96;-0,9080111325800347;-16,018799401837214;-2,6008119354075747;-16,018799401837214;-0,9080111325800347;-2,6008119354075747;12,695699942014832;-137,45536667989134;-42,11554307687612
12:25:28.447;0;Wrist;1;63808;9,96;0;-16,42794389172033;-3,135569418164617;-16,42794389172033;0,03708609495047418;-3,135569418164617;11,047700430310984;-118,71700186162907;-43,885616626483966
