Frecuencia (Hz);100
time;timespan;canal;id;sample;gap;accX;accY;accZ;rawAccX;rawAccY;rawAccZ;rawGirX;rawGirY;rawGirZ
12:23:52.163;0;Mov;1;14641;11,94;0;0;0;0,0023926511894857296;-0,00837427881394343;-0,0119632557145909;-0,27466658528397475;-0,5798516800439466;-0,3051850947599719
12:23:52.163;0;Mov;1;14642;11,94;0;0;0;0,003588976900647469;0;0,0119632557145909;-0,18311105685598317;-0,5188146610919523;-0,27466658528397475
12:23:52.164;0;Mov;1;14643;11,94;0;0;0;-0,0011963255947428648;0;0,0023926511894857296;-0,18311105685598317;-0,5493331705679495;-0,3051850947599719
12:23:52.165;0;Mov;1;14644;11,94;0;0;0;0,009570604757942918;-0,0011963255947428648;-0,009570604757942918;-0,18311105685598317;-0,45777764213995786;-0,27466658528397475
12:23:52.165;0;Mov;1;14645;11,94;0;0;0;0;-0,007177953801294938;0;-0,12207403790398877;-0,5493331705679495;-0,3357036042359691
12:23:52.167;0;Wrist;1;60955;11,81;0;0;0;0,021533861403884816;-0,014355907602589877;-0,0358897671437727;-0,030518509475997192;-0,640888698995941;0,3357036042359691
12:23:52.167;0;Wrist;1;60956;11,81;0;0;0;0,040675070919770656;0,0023926511894857296;-0,04426404688906713;-0,030518509475997192;-0,4882961516159551;0,21362956633198035
12:23:52.167;0;Wrist;1;60957;11,81;0;0;0;0,0478530228583636;-0,010766930701942408;-0,04187139500106815;-0,061037018951994385;-0,4882961516159551;0,15259254737998595
12:23:52.167;0;Wrist;1;60958;11,81;0;0;0;0,004785302378971459;-0,0239265114291818;-0,040675070919770656;-0,4272591326639607;-0,27466658528397475;-0,09155552842799158
12:23:52.167;0;Wrist;1;60959;11,81;0;0;0;0,015552232615238368;-0,020337535459885328;0,00598162785729545;-0,24414807580797754;-0,3051850947599719;0
12:23:52.169;0;Mov;1;14646;10,83;0;0;0;-0,015552232615238368;-0,004785302378971459;-0,003588976900647469;-0,061037018951994385;-0,45777764213995786;-0,27466658528397475
12:23:52.169;0;Mov;1;14647;10,83;0;0;0;0,014355907602589877;0,019141209515885837;-0,020337535459885328;0;-0,5188146610919523;-0,18311105685598317
12:23:52.169;0;Mov;1;14648;10,83;0;0;0;0,003588976900647469;0;-0,0011963255947428648;-0,030518509475997192;-0,4272591326639607;0
12:23:52.169;0;Mov;1;14649;10,83;0;0;0;0,009570604757942918;-0,013159581658590389;0,0011963255947428648;0;-0,36622211371196634;-0,09155552842799158
12:23:52.169;0;Mov;1;14650;10,83;0;0;0;0,01674855762788686;-0,004785302378971459;-0,004785302378971459;0;-0,36622211371196634;-0,12207403790398877
12:23:52.170;0;Wrist;1;60960;10,68;0;0;0;0,031104465230476736;-0,025122837373181287;-0,038282419031771674;-0,21362956633198035;-0,18311105685598317;0
12:23:52.170;0;Wrist;1;60961;10,68;0;0;0;0,015552232615238368;-0,0023926511894857296;-0,01794488357188635;-0,27466658528397475;0;0,030518509475997192
12:23:52.170;0;Wrist;1;60962;10,68;0;0;0;0,014355907602589877;-0,0119632557145909;-0,007177953801294938;-0,21362956633198035;-0,12207403790398877;0,030518509475997192
12:23:52.170;0;Wrist;1;60963;10,68;0;0;0;0,013159581658590389;-0,01674855762788686;-0,00837427881394343;-0,12207403790398877;-0,24414807580797754;0,12207403790398877
12:23:52.170;0;Wrist;1;60964;10,68;0;0;0;-0,003588976900647469;-0,00837427881394343;-0,0023926511894857296;-0,18311105685598317;-0,15259254737998595;0,030518509475997192
12:23:52.171;0;Mov;1;14651;9,9;0;0;0;0,013159581658590389;0,01674855762788686;0,004785302378971459;0,18311105685598317;-0,24414807580797754;-0,09155552842799158
12:23:52.171;0;Mov;1;14652;9,9;0;0;0;0;-0,00598162785729545;-0,00837427881394343;0,15259254737998595;-0,15259254737998595;-0,061037018951994385
12:23:52.171;0;Mov;1;14653;9,9;0;0;0;0,009570604757942918;0,026319163317180778;0,007177953801294938;0,15259254737998595;-0,21362956633198035;0
12:23:52.172;0;Mov;1;14654;9,9;0;0;0;0,003588976900647469;0,010766930701942408;0,007177953801294938;0,030518509475997192;-0,061037018951994385;0
12:23:52.172;0;Mov;1;14655;9,9;0;0;0;0,0011963255947428648;0,009570604757942918;-0,004785302378971459;0;-0,18311105685598317;-0,09155552842799158
12:23:52.198;0;Wrist;1;60965;10,22;0;0;0;0,009570604757942918;-0,0011963255947428648;-0,02273018548518231;-0,030518509475997192;-0,21362956633198035;0,12207403790398877
12:23:52.198;0;Wrist;1;60966;10,22;0;0;0;0,038282419031771674;-0,007177953801294938;-0,04904935066506508;-0,030518509475997192;-0,15259254737998595;0,09155552842799158
12:23:52.198;0;Wrist;1;60967;10,22;0;0;0;0,00837427881394343;0;-0,02273018548518231;-0,18311105685598317;-0,12207403790398877;0
12:23:52.198;0;Wrist;1;60968;10,22;0;0;0;0,003588976900647469;0,014355907602589877;-0,026319163317180778;-0,12207403790398877;0,030518509475997192;-0,061037018951994385
12:23:52.198;0;Wrist;1;60969;10,22;0;0;0;0,010766930701942408;-0,0119632557145909;-0,0239265114291818;-0,061037018951994385;-0,061037018951994385;0
12:23:52.225;0;Mov;1;14656;9,98;0;0;0;0,00598162785729545;0,00598162785729545;-0,01794488357188635;-0,09155552842799158;-0,3051850947599719;-0,061037018951994385
12:23:52.226;0;Mov;1;14657;9,98;0;0;0;0;0,0023926511894857296;0,004785302378971459;-0,09155552842799158;-0,15259254737998595;-0,09155552842799158
12:23:52.226;0;Mov;1;14658;9,98;0;0;0;-0,004785302378971459;0,009570604757942918;0,004785302378971459;-0,030518509475997192;-0,030518509475997192;-0,030518509475997192
12:23:52.226;0;Mov;1;14659;9,98;0;0;0;-0,004785302378971459;0;0,010766930701942408;-0,18311105685598317;-0,18311105685598317;-0,09155552842799158
12:23:52.226;0;Mov;1;14660;9,98;0;0;0;-0,01794488357188635;0;0,015552232615238368;-0,24414807580797754;-0,09155552842799158;-0,12207403790398877
12:23:52.233;0;Wrist;1;60970;9,95;0;0;0;0,013159581658590389;0,007177953801294938;-0,021533861403884816;0;0,030518509475997192;0,030518509475997192
12:23:52.233;0;Wrist;1;60971;9,95;0;0;0;0,031104465230476736;-0,02273018548518231;-0,021533861403884816;-0,061037018951994385;0,061037018951994385;-0,061037018951994385
12:23:52.233;0;Wrist;1;60972;9,95;0;0;0;0,015552232615238368;0,009570604757942918;-0,01674855762788686;-0,12207403790398877;0,24414807580797754;-0,18311105685598317
12:23:52.233;0;Wrist;1;60973;9,95;0;0;0;0,019141209515885837;-0,0119632557145909;-0,014355907602589877;-0,09155552842799158;0,3051850947599719;-0,061037018951994385
12:23:52.233;0;Wrist;1;60974;9,95;0;0;0;0,004785302378971459;-0,009570604757942918;-0,01674855762788686;0;0,3357036042359691;-0,030518509475997192
12:23:52.259;0;Mov;1;14661;9,72;0;0;0;-0,010766930701942408;0,0011963255947428648;0,020337535459885328;-0,12207403790398877;-0,12207403790398877;-0,061037018951994385
12:23:52.259;0;Mov;1;14662;9,72;0;0;0;0,009570604757942918;-0,0023926511894857296;0,00837427881394343;-0,061037018951994385;-0,18311105685598317;0,030518509475997192
12:23:52.259;0;Mov;1;14663;9,72;0;0;0;0,0011963255947428648;-0,007177953801294938;-0,010766930701942408;-0,09155552842799158;-0,09155552842799158;-0,061037018951994385
12:23:52.259;0;Mov;1;14664;9,72;0;0;0;0;-0,0023926511894857296;-0,0011963255947428648;-0,18311105685598317;-0,061037018951994385;-0,12207403790398877
12:23:52.259;0;Mov;1;14665;9,72;0;0;0;0,013159581658590389;0,014355907602589877;0,0119632557145909;-0,24414807580797754;0;-0,15259254737998595
12:23:52.263;0;Wrist;1;60975;9,66;0;0;0;-0,0011963255947428648;-0,0011963255947428648;-0,014355907602589877;0;0,3357036042359691;-0,09155552842799158
12:23:52.263;0;Wrist;1;60976;9,66;0;0;0;-0,015552232615238368;-0,01794488357188635;-0,00837427881394343;0,030518509475997192;0,3051850947599719;-0,15259254737998595
12:23:52.264;0;Wrist;1;60977;9,66;0;0;0;-0,00598162785729545;-0,003588976900647469;-0,0011963255947428648;0;0,24414807580797754;-0,09155552842799158
12:23:52.264;0;Wrist;1;60978;9,66;0;0;0;-0,004785302378971459;0,0011963255947428648;-0,013159581658590389;0,09155552842799158;0,09155552842799158;-0,09155552842799158
12:23:52.264;0;Wrist;1;60979;9,66;0;0;0;0,004785302378971459;0,004785302378971459;-0,009570604757942918;-0,061037018951994385;0,3357036042359691;0
12:23:52.315;0;Mov;1;14666;9,83;0;0;0;0;0,0023926511894857296;0,0023926511894857296;-0,27466658528397475;-0,18311105685598317;-0,15259254737998595
12:23:52.315;0;Mov;1;14667;9,83;0;0;0;0,0011963255947428648;0,014355907602589877;-0,004785302378971459;-0,27466658528397475;-0,12207403790398877;-0,18311105685598317
12:23:52.315;0;Mov;1;14668;9,83;0;0;0;0,00837427881394343;0,0011963255947428648;0,00837427881394343;-0,36622211371196634;-0,061037018951994385;-0,24414807580797754
12:23:52.315;0;Mov;1;14669;9,83;0;0;0;-0,003588976900647469;-0,0011963255947428648;-0,0023926511894857296;-0,4882961516159551;0;-0,36622211371196634
12:23:52.316;0;Mov;1;14670;9,83;0;0;0;0,013159581658590389;-0,01794488357188635;-0,00598162785729545;-0,36622211371196634;-0,061037018951994385;-0,27466658528397475
12:23:52.323;0;Wrist;1;60980;9,82;0;0;0;0,02273018548518231;0,003588976900647469;-0,0346934430624752;-0,18311105685598317;0,27466658528397475;-0,030518509475997192
12:23:52.323;0;Wrist;1;60981;9,82;0;0;0;0,031104465230476736;0,009570604757942918;-0,0346934430624752;-0,18311105685598317;0,45777764213995786;-0,09155552842799158
12:23:52.323;0;Wrist;1;60982;9,82;0;0;0;0,021533861403884816;-0,0011963255947428648;-0,025122837373181287;-0,21362956633198035;0,4272591326639607;-0,3051850947599719
12:23:52.323;0;Wrist;1;60983;9,82;0;0;0;0,027515489261180266;-0,00837427881394343;-0,0478530228583636;-0,12207403790398877;0,45777764213995786;-0,18311105685598317
12:23:52.323;0;Wrist;1;60984;9,82;0;0;0;0,00598162785729545;-0,003588976900647469;-0,0466566987770661;-0,21362956633198035;0,5798516800439466;-0,27466658528397475
12:23:52.380;0;Mov;1;14671;10,04;0;0;0;0,003588976900647469;-0,019141209515885837;0,01794488357188635;-0,27466658528397475;-0,030518509475997192;-0,21362956633198035
12:23:52.381;0;Mov;1;14672;10,04;0;0;0;0,00837427881394343;-0,02273018548518231;-0,010766930701942408;-0,15259254737998595;-0,030518509475997192;-0,24414807580797754
12:23:52.381;0;Mov;1;14673;10,04;0;0;0;0,027515489261180266;-0,01674855762788686;-0,01674855762788686;-0,12207403790398877;0,12207403790398877;-0,21362956633198035
12:23:52.381;0;Mov;1;14674;10,04;0;0;0;0,04426404688906713;-0,014355907602589877;-0,025122837373181287;-0,09155552842799158;0,18311105685598317;-0,030518509475997192
12:23:52.381;0;Mov;1;14675;10,04;0;0;0;0,02273018548518231;-0,01674855762788686;-0,01794488357188635;0;0,4882961516159551;0,061037018951994385
12:23:52.384;0;Wrist;1;60985;9,98;0;0;0;0,0346934430624752;-0,00598162785729545;-0,0358897671437727;-0,36622211371196634;0,5798516800439466;-0,5188146610919523
12:23:52.384;0;Wrist;1;60986;9,98;0;0;0;0,015552232615238368;0,007177953801294938;-0,02990813928647725;-0,4272591326639607;0,6103701895199438;-0,45777764213995786
12:23:52.384;0;Wrist;1;60987;9,98;0;0;0;-0,0119632557145909;-0,019141209515885837;-0,00837427881394343;-0,3051850947599719;0,640888698995941;-0,45777764213995786
12:23:52.384;0;Wrist;1;60988;9,98;0;0;0;-0,021533861403884816;-0,013159581658590389;0;-0,36622211371196634;0,6714072084719382;-0,5493331705679495
12:23:52.384;0;Wrist;1;60989;9,98;0;0;0;-0,021533861403884816;-0,0358897671437727;0,0023926511894857296;-0,15259254737998595;0,6103701895199438;-0,27466658528397475
12:23:52.406;0;Mov;1;14676;9,73;0;0;0;0,015552232615238368;-0,013159581658590389;0,00598162785729545;0,061037018951994385;0,6103701895199438;0,12207403790398877
12:23:52.406;0;Mov;1;14677;9,73;0;0;0;-0,0023926511894857296;-0,021533861403884816;-0,0119632557145909;0,15259254737998595;0,7629627368999298;0,3051850947599719
12:23:52.406;0;Mov;1;14678;9,73;0;0;0;0,025122837373181287;-0,02273018548518231;-0,015552232615238368;0,21362956633198035;0,9765923032319102;0,27466658528397475
12:23:52.406;0;Mov;1;14679;9,73;0;0;0;0,009570604757942918;-0,0239265114291818;0,0011963255947428648;0,27466658528397475;1,098666341135899;0,3357036042359691
12:23:52.406;0;Mov;1;14680;9,73;0;0;0;-0,01674855762788686;-0,0023926511894857296;-0,004785302378971459;0,36622211371196634;1,0376293221839046;0,4272591326639607
12:23:52.413;0;Wrist;1;60990;9,73;0;0;0;0,025122837373181287;0,04187139500106815;-0,013159581658590389;0;0,6103701895199438;-0,21362956633198035
12:23:52.413;0;Wrist;1;60991;9,73;0;0;0;0;-0,026319163317180778;0,0119632557145909;-0,12207403790398877;0,45777764213995786;-0,3967406231879635
12:23:52.414;0;Wrist;1;60992;9,73;0;0;0;0,0011963255947428648;0,02273018548518231;-0,028711815205179753;-0,030518509475997192;0,3357036042359691;-0,27466658528397475
12:23:52.414;0;Wrist;1;60993;9,73;0;0;0;0,019141209515885837;-0,019141209515885837;-0,015552232615238368;-0,15259254737998595;0,21362956633198035;-0,4272591326639607
12:23:52.414;0;Wrist;1;60994;9,73;0;0;0;0,03708609495047418;0,0119632557145909;-0,0239265114291818;-0,15259254737998595;0,3967406231879635;-0,3967406231879635
12:23:52.465;0;Mov;1;14681;9,87;0;0;0;0,003588976900647469;0;-0,004785302378971459;0,36622211371196634;1,0681478316599018;0,36622211371196634
12:23:52.466;0;Mov;1;14682;9,87;0;0;0;-0,010766930701942408;0,0023926511894857296;0,013159581658590389;0,3051850947599719;1,1291848506118962;0,45777764213995786
12:23:52.466;0;Mov;1;14683;9,87;0;0;0;-0,0011963255947428648;0,00598162785729545;0,01674855762788686;0,36622211371196634;1,1291848506118962;0,5188146610919523
12:23:52.466;0;Mov;1;14684;9,87;0;0;0;0,003588976900647469;0,004785302378971459;0,015552232615238368;0,45777764213995786;0,9460737937559129;0,4882961516159551
12:23:52.466;0;Mov;1;14685;9,87;0;0;0;-0,004785302378971459;-0,019141209515885837;0,010766930701942408;0,4882961516159551;0,8545182653279214;0,45777764213995786
12:23:52.502;0;Wrist;1;60995;10,2;0;0;0;0,01674855762788686;-0,015552232615238368;-0,015552232615238368;-0,061037018951994385;0,3357036042359691;-0,4272591326639607
12:23:52.502;0;Wrist;1;60996;10,2;0;0;0;0,02273018548518231;-0,003588976900647469;-0,028711815205179753;-0,24414807580797754;0,3357036042359691;-0,5188146610919523
12:23:52.502;0;Wrist;1;60997;10,2;0;0;0;0,019141209515885837;0,00837427881394343;-0,0239265114291818;-0,24414807580797754;0,4272591326639607;-0,6103701895199438
12:23:52.503;0;Wrist;1;60998;10,2;0;0;0;-0,010766930701942408;-0,025122837373181287;0;-0,061037018951994385;0,3051850947599719;-0,5493331705679495
12:23:52.503;0;Wrist;1;60999;10,2;0;0;0;-0,021533861403884816;-0,009570604757942918;0,025122837373181287;-0,09155552842799158;0,36622211371196634;-0,27466658528397475
12:23:52.529;0;Mov;1;14686;10,04;0;0;0;0,009570604757942918;-0,0011963255947428648;-0,014355907602589877;0,45777764213995786;0,8850367748039186;0,3357036042359691
12:23:52.529;0;Mov;1;14687;10,04;0;0;0;0,010766930701942408;-0,004785302378971459;-0,004785302378971459;0,4882961516159551;1,0376293221839046;0,3357036042359691
12:23:52.529;0;Mov;1;14688;10,04;0;0;0;-0,02273018548518231;-0,00598162785729545;0,009570604757942918;0,5188146610919523;1,0681478316599018;0,36622211371196634
12:23:52.529;0;Mov;1;14689;10,04;0;0;0;0,01794488357188635;-0,0011963255947428648;-0,028711815205179753;0,5798516800439466;0,9155552842799157;0,5188146610919523
12:23:52.529;0;Mov;1;14690;10,04;0;0;0;0,058619954491657;-0,00837427881394343;-0,058619954491657;0,5493331705679495;1,0071108127079074;0,4882961516159551
12:23:52.533;0;Wrist;1;61000;9,97;0;0;0;-0,015552232615238368;-0,0119632557145909;0,013159581658590389;0;0,4272591326639607;-0,45777764213995786
12:23:52.533;0;Wrist;1;61001;9,97;0;0;0;-0,00598162785729545;-0,003588976900647469;0,013159581658590389;0;0,3357036042359691;-0,3967406231879635
12:23:52.533;0;Wrist;1;61002;9,97;0;0;0;0;-0,003588976900647469;0,0011963255947428648;0,18311105685598317;0,36622211371196634;-0,27466658528397475
12:23:52.533;0;Wrist;1;61003;9,97;0;0;0;0,007177953801294938;-0,00837427881394343;0,010766930701942408;0,3051850947599719;0,36622211371196634;-0,15259254737998595
12:23:52.533;0;Wrist;1;61004;9,97;0;0;0;0,009570604757942918;0;-0,004785302378971459;0,3051850947599719;0,3357036042359691;-0,12207403790398877
12:23:52.561;0;Mov;1;14691;9,84;0;0;0;0,007177953801294938;-0,015552232615238368;0,00837427881394343;0,4272591326639607;1,4343699453718681;0,5188146610919523
12:23:52.561;0;Mov;1;14692;9,84;0;0;0;0,0023926511894857296;0,056227302603658026;0,02990813928647725;0,4882961516159551;1,5564439832758568;0,5798516800439466
12:23:52.562;0;Mov;1;14693;9,84;0;0;0;-0,020337535459885328;0,03349711525577372;0,020337535459885328;0,36622211371196634;1,5259254737998595;0,3967406231879635
12:23:52.562;0;Mov;1;14694;9,84;0;0;0;-0,015552232615238368;0,010766930701942408;0,009570604757942918;0,21362956633198035;1,4648884548478653;0,3357036042359691
12:23:52.562;0;Mov;1;14695;9,84;0;0;0;-0,031104465230476736;0,00598162785729545;0,02273018548518231;0,18311105685598317;1,3428144169438765;0,21362956633198035
12:23:52.564;0;Wrist;1;61005;9,79;0;0;0;-0,014355907602589877;-0,0023926511894857296;0,00598162785729545;0,4882961516159551;0,3967406231879635;-0,15259254737998595
12:23:52.564;0;Wrist;1;61006;9,79;0;0;0;-0,01674855762788686;-0,00837427881394343;0,00598162785729545;0,4882961516159551;0,21362956633198035;-0,061037018951994385
12:23:52.565;0;Wrist;1;61007;9,79;0;0;0;0,0011963255947428648;-0,0011963255947428648;-0,013159581658590389;0,36622211371196634;0,27466658528397475;0
12:23:52.565;0;Wrist;1;61008;9,79;0;0;0;0,007177953801294938;0,00837427881394343;-0,004785302378971459;0,4272591326639607;0,21362956633198035;-0,12207403790398877
12:23:52.565;0;Wrist;1;61009;9,79;0;0;0;-0,009570604757942918;0,009570604757942918;0,007177953801294938;0,3967406231879635;0,15259254737998595;0
12:23:52.615;0;Mov;1;14696;9,87;0;0;0;-0,03708609495047418;0,009570604757942918;0,03708609495047418;0,09155552842799158;1,1597033600878932;0,061037018951994385
12:23:52.615;0;Mov;1;14697;9,87;0;0;0;-0,026319163317180778;-0,015552232615238368;0,028711815205179753;0,030518509475997192;0,9460737937559129;0,030518509475997192
12:23:52.615;0;Mov;1;14698;9,87;0;0;0;-0,040675070919770656;-0,0023926511894857296;0,025122837373181287;0,030518509475997192;1,0376293221839046;0
12:23:52.615;0;Mov;1;14699;9,87;0;0;0;-0,03349711525577372;0,0011963255947428648;0,04187139500106815;0,030518509475997192;0,8239997558519242;0,09155552842799158
12:23:52.615;0;Mov;1;14700;9,87;0;0;0;-0,03230079117447623;0,003588976900647469;0,03230079117447623;0,21362956633198035;0,4272591326639607;0,030518509475997192
12:23:52.624;0;Wrist;1;61010;9,88;0;0;0;-0,004785302378971459;0,010766930701942408;0,0011963255947428648;0,3051850947599719;0,030518509475997192;-0,030518509475997192
12:23:52.624;0;Wrist;1;61011;9,88;0;0;0;-0,007177953801294938;0,004785302378971459;-0,013159581658590389;0,12207403790398877;0;-0,061037018951994385
12:23:52.624;0;Wrist;1;61012;9,88;0;0;0;0,00837427881394343;0,00598162785729545;-0,02273018548518231;0,12207403790398877;-0,030518509475997192;0
12:23:52.624;0;Wrist;1;61013;9,88;0;0;0;0,0239265114291818;0,0023926511894857296;-0,028711815205179753;0,09155552842799158;-0,061037018951994385;-0,09155552842799158
12:23:52.624;0;Wrist;1;61014;9,88;0;0;0;0,004785302378971459;0,00598162785729545;-0,00598162785729545;0,15259254737998595;-0,061037018951994385;0
12:23:52.675;0;Mov;1;14701;9,98;0;0;0;-0,02273018548518231;-0,026319163317180778;0,019141209515885837;0,15259254737998595;0,3357036042359691;-0,09155552842799158
12:23:52.676;0;Mov;1;14702;9,98;0;0;0;-0,021533861403884816;0,00837427881394343;0,019141209515885837;0,09155552842799158;0,3051850947599719;-0,030518509475997192
12:23:52.676;0;Mov;1;14703;9,98;0;0;0;-0,025122837373181287;-0,004785302378971459;0,01674855762788686;0,18311105685598317;0,12207403790398877;0
12:23:52.676;0;Mov;1;14704;9,98;0;0;0;-0,004785302378971459;0,0119632557145909;-0,004785302378971459;0,030518509475997192;0,15259254737998595;-0,18311105685598317
12:23:52.676;0;Mov;1;14705;9,98;0;0;0;0;-0,0023926511894857296;0,015552232615238368;0,061037018951994385;0,15259254737998595;-0,18311105685598317
12:23:52.683;0;Wrist;1;61015;9,98;0;0;0;0,0023926511894857296;0,00837427881394343;0,0011963255947428648;0,12207403790398877;-0,09155552842799158;0
12:23:52.683;0;Wrist;1;61016;9,98;0;0;0;0,0023926511894857296;-0,007177953801294938;-0,004785302378971459;0,09155552842799158;-0,030518509475997192;0,030518509475997192
12:23:52.684;0;Wrist;1;61017;9,98;0;0;0;0,01794488357188635;-0,010766930701942408;-0,0239265114291818;0,061037018951994385;-0,18311105685598317;0,12207403790398877
12:23:52.684;0;Wrist;1;61018;9,98;0;0;0;0,013159581658590389;0;-0,010766930701942408;0,15259254737998595;-0,24414807580797754;0,12207403790398877
12:23:52.684;0;Wrist;1;61019;9,98;0;0;0;0,010766930701942408;-0,014355907602589877;-0,02273018548518231;0,27466658528397475;-0,18311105685598317;0,21362956633198035
12:23:52.705;0;Mov;1;14706;9,81;0;0;0;-0,00837427881394343;-0,020337535459885328;0,003588976900647469;0,18311105685598317;0,3051850947599719;-0,12207403790398877
12:23:52.706;0;Mov;1;14707;9,81;0;0;0;-0,0023926511894857296;-0,003588976900647469;-0,014355907602589877;0,21362956633198035;0,3051850947599719;-0,15259254737998595
12:23:52.706;0;Mov;1;14708;9,81;0;0;0;0;-0,015552232615238368;-0,00837427881394343;0,21362956633198035;0,21362956633198035;-0,09155552842799158
12:23:52.707;0;Mov;1;14709;9,81;0;0;0;0;-0,026319163317180778;0,007177953801294938;0,24414807580797754;0,24414807580797754;-0,030518509475997192
12:23:52.707;0;Mov;1;14710;9,81;0;0;0;0,0023926511894857296;-0,009570604757942918;0,00598162785729545;0,3357036042359691;0,27466658528397475;-0,09155552842799158
12:23:52.713;0;Wrist;1;61020;9,79;0;0;0;0,013159581658590389;-0,003588976900647469;-0,014355907602589877;0,3051850947599719;-0,21362956633198035;0,18311105685598317
12:23:52.713;0;Wrist;1;61021;9,79;0;0;0;0,009570604757942918;-0,003588976900647469;-0,028711815205179753;0,3357036042359691;-0,21362956633198035;0,18311105685598317
12:23:52.713;0;Wrist;1;61022;9,79;0;0;0;0,007177953801294938;0,0011963255947428648;-0,014355907602589877;0,21362956633198035;0;0,030518509475997192
12:23:52.713;0;Wrist;1;61023;9,79;0;0;0;0,0119632557145909;-0,007177953801294938;-0,015552232615238368;0,3051850947599719;-0,15259254737998595;0
12:23:52.713;0;Wrist;1;61024;9,79;0;0;0;0,0346934430624752;0,0119632557145909;-0,0358897671437727;0,3051850947599719;-0,12207403790398877;0,09155552842799158
12:23:52.765;0;Mov;1;14711;9,89;0;0;0;0,0119632557145909;0;-0,004785302378971459;0,24414807580797754;0,3051850947599719;-0,030518509475997192
12:23:52.765;0;Mov;1;14712;9,89;0;0;0;0,025122837373181287;-0,026319163317180778;-0,00837427881394343;0,21362956633198035;0,3051850947599719;0,030518509475997192
12:23:52.765;0;Mov;1;14713;9,89;0;0;0;0,0011963255947428648;-0,0011963255947428648;-0,00598162785729545;0,24414807580797754;0,21362956633198035;0,12207403790398877
12:23:52.765;0;Mov;1;14714;9,89;0;0;0;0,0023926511894857296;0,014355907602589877;0,0011963255947428648;0,3357036042359691;0,3967406231879635;0,12207403790398877
12:23:52.765;0;Mov;1;14715;9,89;0;0;0;-0,00598162785729545;0,007177953801294938;0,00837427881394343;0,3357036042359691;0,36622211371196634;0,21362956633198035
12:23:52.773;0;Wrist;1;61025;9,89;0;0;0;0,00837427881394343;0,014355907602589877;-0,007177953801294938;0,09155552842799158;0;-0,09155552842799158
12:23:52.773;0;Wrist;1;61026;9,89;0;0;0;0,00837427881394343;-0,009570604757942918;0;0,030518509475997192;0,030518509475997192;-0,18311105685598317
12:23:52.773;0;Wrist;1;61027;9,89;0;0;0;-0,00598162785729545;-0,0119632557145909;-0,0023926511894857296;-0,030518509475997192;0,3051850947599719;-0,18311105685598317
12:23:52.774;0;Wrist;1;61028;9,89;0;0;0;-0,00837427881394343;0,003588976900647469;-0,003588976900647469;0,061037018951994385;0,18311105685598317;-0,061037018951994385
12:23:52.774;0;Wrist;1;61029;9,89;0;0;0;0,003588976900647469;0,00598162785729545;-0,0119632557145909;0,09155552842799158;0,18311105685598317;0
12:23:52.835;0;Wrist;1;61030;10;0;0;0;0,003588976900647469;0;-0,0119632557145909;0,12207403790398877;0,061037018951994385;-0,061037018951994385
12:23:52.835;0;Wrist;1;61031;10;0;0;0;-0,007177953801294938;0,0119632557145909;-0,00598162785729545;0,24414807580797754;0;0
12:23:52.835;0;Wrist;1;61032;10;0;0;0;-0,014355907602589877;0,007177953801294938;0,0119632557145909;0,21362956633198035;-0,030518509475997192;0,030518509475997192
12:23:52.835;0;Wrist;1;61033;10;0;0;0;-0,00837427881394343;0,00837427881394343;-0,00598162785729545;0,061037018951994385;0,030518509475997192;-0,030518509475997192
12:23:52.835;0;Wrist;1;61034;10;0;0;0;0,01674855762788686;0,010766930701942408;-0,0239265114291818;0,030518509475997192;-0,030518509475997192;0,061037018951994385
12:23:52.856;0;Mov;1;14716;10,24;0;0;0;-0,0011963255947428648;0,003588976900647469;0,00837427881394343;0,18311105685598317;0,3357036042359691;0,12207403790398877
12:23:52.856;0;Mov;1;14717;10,24;0;0;0;-0,0119632557145909;0,015552232615238368;0,027515489261180266;0,09155552842799158;0,36622211371196634;0,12207403790398877
12:23:52.856;0;Mov;1;14718;10,24;0;0;0;-0,004785302378971459;0,00598162785729545;0,025122837373181287;0,12207403790398877;0,18311105685598317;0,15259254737998595
12:23:52.856;0;Mov;1;14719;10,24;0;0;0;0;0,010766930701942408;0,009570604757942918;0,030518509475997192;0,21362956633198035;0,09155552842799158
12:23:52.856;0;Mov;1;14720;10,24;0;0;0;-0,0023926511894857296;0,003588976900647469;0,020337535459885328;0,061037018951994385;0,12207403790398877;0
12:23:52.885;0;Mov;1;14721;10,06;0;0;0;-0,0119632557145909;0,009570604757942918;0,013159581658590389;0,030518509475997192;0,12207403790398877;0
12:23:52.885;0;Mov;1;14722;10,06;0;0;0;0,004785302378971459;0,00598162785729545;0,013159581658590389;0;0,09155552842799158;0
12:23:52.885;0;Mov;1;14723;10,06;0;0;0;-0,0023926511894857296;0,004785302378971459;0,0023926511894857296;-0,09155552842799158;0,061037018951994385;0,12207403790398877
12:23:52.885;0;Mov;1;14724;10,06;0;0;0;-0,007177953801294938;-0,0011963255947428648;0,015552232615238368;-0,09155552842799158;0,15259254737998595;0,030518509475997192
12:23:52.885;0;Mov;1;14725;10,06;0;0;0;-0,00598162785729545;-0,00598162785729545;0,013159581658590389;-0,15259254737998595;0,09155552842799158;-0,15259254737998595
12:23:52.895;0;Wrist;1;61035;10,07;0;0;0;0,010766930701942408;-0,003588976900647469;-0,004785302378971459;0,061037018951994385;-0,09155552842799158;0
12:23:52.895;0;Wrist;1;61036;10,07;0;0;0;0,020337535459885328;0;-0,025122837373181287;0;0;-0,061037018951994385
12:23:52.895;0;Wrist;1;61037;10,07;0;0;0;0,00598162785729545;-0,0023926511894857296;-0,014355907602589877;-0,15259254737998595;0;-0,15259254737998595
12:23:52.895;0;Wrist;1;61038;10,07;0;0;0;0,007177953801294938;-0,021533861403884816;0,00837427881394343;-0,061037018951994385;0;-0,061037018951994385
12:23:52.895;0;Wrist;1;61039;10,07;0;0;0;-0,0023926511894857296;-0,0011963255947428648;-0,007177953801294938;-0,09155552842799158;0,12207403790398877;0,061037018951994385
12:23:52.916;0;Mov;1;14726;9,91;0;0;0;-0,0023926511894857296;-0,007177953801294938;0,013159581658590389;-0,18311105685598317;0,061037018951994385;-0,030518509475997192
12:23:52.916;0;Mov;1;14727;9,91;0;0;0;-0,009570604757942918;-0,014355907602589877;0,019141209515885837;-0,21362956633198035;0,061037018951994385;0,030518509475997192
12:23:52.916;0;Mov;1;14728;9,91;0;0;0;-0,00598162785729545;-0,025122837373181287;0,010766930701942408;-0,15259254737998595;0,030518509475997192;-0,030518509475997192
12:23:52.916;0;Mov;1;14729;9,91;0;0;0;-0,00598162785729545;-0,00837427881394343;0,013159581658590389;-0,030518509475997192;-0,061037018951994385;0,061037018951994385
12:23:52.916;0;Mov;1;14730;9,91;0;0;0;0,0011963255947428648;-0,01674855762788686;-0,007177953801294938;0;-0,15259254737998595;0,061037018951994385
12:23:52.923;0;Wrist;1;61040;9,9;0;0;0;0,0023926511894857296;-0,014355907602589877;-0,021533861403884816;0;0,030518509475997192;0,09155552842799158
12:23:52.923;0;Wrist;1;61041;9,9;0;0;0;0,01674855762788686;0;-0,028711815205179753;0,030518509475997192;0,09155552842799158;0,030518509475997192
12:23:52.923;0;Wrist;1;61042;9,9;0;0;0;0,01794488357188635;-0,004785302378971459;-0,03230079117447623;0;0,09155552842799158;0
12:23:52.923;0;Wrist;1;61043;9,9;0;0;0;0,0239265114291818;-0,004785302378971459;-0,026319163317180778;0,030518509475997192;0;0,061037018951994385
12:23:52.923;0;Wrist;1;61044;9,9;0;0;0;0,026319163317180778;-0,019141209515885837;-0,01794488357188635;-0,061037018951994385;0,061037018951994385;0
12:23:52.975;0;Mov;1;14731;9,99;0;0;0;-0,003588976900647469;-0,004785302378971459;-0,004785302378971459;0;-0,061037018951994385;0,15259254737998595
12:23:52.975;0;Mov;1;14732;9,99;0;0;0;0;-0,0119632557145909;0;0;0;0,18311105685598317
12:23:52.975;0;Mov;1;14733;9,99;0;0;0;-0,009570604757942918;-0,01674855762788686;-0,014355907602589877;0;0,061037018951994385;0,12207403790398877
12:23:52.975;0;Mov;1;14734;9,99;0;0;0;0,013159581658590389;-0,015552232615238368;-0,0119632557145909;0;0,030518509475997192;0,15259254737998595
12:23:52.975;0;Mov;1;14735;9,99;0;0;0;0,020337535459885328;-0,04546037097036462;-0,003588976900647469;0,061037018951994385;0,12207403790398877;0,27466658528397475
12:23:52.984;0;Wrist;1;61045;9,99;0;0;0;-0,004785302378971459;-0,00598162785729545;-0,009570604757942918;0,061037018951994385;0,15259254737998595;0
12:23:52.984;0;Wrist;1;61046;9,99;0;0;0;-0,015552232615238368;-0,0119632557145909;0;0,09155552842799158;0,15259254737998595;0,030518509475997192
12:23:52.984;0;Wrist;1;61047;9,99;0;0;0;0,019141209515885837;0;-0,0358897671437727;0,09155552842799158;0;0,12207403790398877
12:23:52.984;0;Wrist;1;61048;9,99;0;0;0;0,010766930701942408;0,009570604757942918;-0,0239265114291818;-0,030518509475997192;-0,15259254737998595;0,030518509475997192
12:23:52.984;0;Wrist;1;61049;9,99;0;0;0;-0,019141209515885837;-0,015552232615238368;-0,014355907602589877;-0,15259254737998595;-0,09155552842799158;0,030518509475997192
12:23:53.006;0;Mov;1;14736;9,86;0;0;0;0,00598162785729545;-0,031104465230476736;0,014355907602589877;0,15259254737998595;0,3357036042359691;0,3357036042359691
12:23:53.006;0;Mov;1;14737;9,86;0;0;0;-0,00598162785729545;-0,014355907602589877;0,004785302378971459;0,3357036042359691;0,5188146610919523;0,5798516800439466
12:23:53.006;0;Mov;1;14738;9,86;0;0;0;0;-0,031104465230476736;0,015552232615238368;0,3051850947599719;0,5798516800439466;0,5188146610919523
12:23:53.006;0;Mov;1;14739;9,86;0;0;0;0,00837427881394343;-0,058619954491657;0,019141209515885837;0,5798516800439466;0,5798516800439466;0,6103701895199438
12:23:53.006;0;Mov;1;14740;9,86;0;0;0;0,025122837373181287;-0,010766930701942408;0,003588976900647469;0,6714072084719382;0,4882961516159551;0,9765923032319102
12:23:53.013;0;Wrist;1;61050;9,84;0;0;0;-0,028711815205179753;-0,009570604757942918;-0,004785302378971459;-0,09155552842799158;-0,5188146610919523;0,18311105685598317
12:23:53.013;0;Wrist;1;61051;9,84;0;0;0;0,010766930701942408;-0,009570604757942918;-0,0239265114291818;-0,12207403790398877;-0,5188146610919523;0,18311105685598317
12:23:53.013;0;Wrist;1;61052;9,84;0;0;0;0,003588976900647469;-0,028711815205179753;-0,0239265114291818;-0,21362956633198035;-0,7324442274239327;0,24414807580797754
12:23:53.013;0;Wrist;1;61053;9,84;0;0;0;-0,021533861403884816;-0,026319163317180778;0,0011963255947428648;-0,3051850947599719;-0,8545182653279214;0,3357036042359691
12:23:53.013;0;Wrist;1;61054;9,84;0;0;0;-0,009570604757942918;-0,027515489261180266;0,00598162785729545;-0,21362956633198035;-0,9460737937559129;0,45777764213995786
12:23:53.065;0;Mov;1;14741;9,92;0;0;0;0;-0,003588976900647469;0;0,640888698995941;0,5493331705679495;1,0376293221839046
12:23:53.065;0;Mov;1;14742;9,92;0;0;0;-0,004785302378971459;0,028711815205179753;0,02273018548518231;0,6714072084719382;0,7019257179479355;0,9460737937559129
12:23:53.065;0;Mov;1;14743;9,92;0;0;0;0,013159581658590389;0,02990813928647725;0,038282419031771674;0,5493331705679495;0,8239997558519242;0,7629627368999298
12:23:53.065;0;Mov;1;14744;9,92;0;0;0;0,007177953801294938;0,03349711525577372;0,027515489261180266;0,3357036042359691;1,2207403790398876;0,6714072084719382
12:23:53.065;0;Mov;1;14745;9,92;0;0;0;-0,0023926511894857296;0,026319163317180778;0,025122837373181287;0,18311105685598317;1,3428144169438765;0,5493331705679495
12:23:53.102;0;Wrist;1;61055;10,11;0;0;0;-0,007177953801294938;-0,03708609495047418;-0,00837427881394343;0;-0,8545182653279214;0,6103701895199438
12:23:53.102;0;Wrist;1;61056;10,11;0;0;0;-0,009570604757942918;-0,004785302378971459;-0,00598162785729545;0,12207403790398877;-0,9460737937559129;0,8239997558519242
12:23:53.102;0;Wrist;1;61057;10,11;0;0;0;-0,00598162785729545;-0,003588976900647469;0,0011963255947428648;0,27466658528397475;-1,0376293221839046;1,1291848506118962
12:23:53.102;0;Wrist;1;61058;10,11;0;0;0;-0,007177953801294938;0,027515489261180266;-0,003588976900647469;0,27466658528397475;-1,1597033600878932;1,0376293221839046
12:23:53.103;0;Wrist;1;61059;10,11;0;0;0;0,0119632557145909;0,03349711525577372;-0,00837427881394343;0,18311105685598317;-1,2207403790398876;1,0071108127079074
12:23:53.126;0;Mov;1;14746;9,99;0;0;0;-0,0023926511894857296;0,007177953801294938;0,0239265114291818;0,09155552842799158;1,2207403790398876;0,3967406231879635
12:23:53.126;0;Mov;1;14747;9,99;0;0;0;-0,009570604757942918;-0,009570604757942918;-0,003588976900647469;0,12207403790398877;1,1902218695638904;0,3357036042359691
12:23:53.126;0;Mov;1;14748;9,99;0;0;0;-0,04187139500106815;-0,013159581658590389;0,009570604757942918;0,061037018951994385;1,0681478316599018;0,3357036042359691
12:23:53.126;0;Mov;1;14749;9,99;0;0;0;-0,04187139500106815;-0,03349711525577372;0,0239265114291818;0,24414807580797754;0,9460737937559129;0,3967406231879635
12:23:53.126;0;Mov;1;14750;9,99;0;0;0;-0,03349711525577372;-0,03349711525577372;0,013159581658590389;0,4272591326639607;0,7324442274239327;0,6103701895199438
12:23:53.155;0;Mov;1;14751;9,85;0;0;0;-0,0358897671437727;0,020337535459885328;0,04187139500106815;0,3967406231879635;0,45777764213995786;0,7324442274239327
12:23:53.155;0;Mov;1;14752;9,85;0;0;0;-0,07776116214484084;0,03708609495047418;0,07297585836884289;0,27466658528397475;0,12207403790398877;0,8850367748039186
12:23:53.155;0;Mov;1;14753;9,85;0;0;0;-0,08135014183954131;0,06340525826765496;0,07536851398224585;0,18311105685598317;-0,21362956633198035;0,6714072084719382
12:23:53.155;0;Mov;1;14754;9,85;0;0;0;-0,0705832102062479;0,03708609495047418;0,06340525826765496;0,061037018951994385;-0,793481246375927;0,3967406231879635
12:23:53.155;0;Mov;1;14755;9,85;0;0;0;-0,0693868861249504;0,08613544561553926;0,05383465071565905;0;-1,5564439832758568;0,12207403790398877
12:23:53.163;0;Wrist;1;61060;10,19;0;0;0;-0,0023926511894857296;0,0119632557145909;0,00837427881394343;-0,12207403790398877;-1,1597033600878932;0,8850367748039186
12:23:53.164;0;Wrist;1;61061;10,19;0;0;0;0,0023926511894857296;0,01674855762788686;0,013159581658590389;-0,27466658528397475;-1,1597033600878932;0,9155552842799157
12:23:53.164;0;Wrist;1;61062;10,19;0;0;0;0,00837427881394343;0,01674855762788686;0;-0,24414807580797754;-1,1291848506118962;0,9460737937559129
12:23:53.164;0;Wrist;1;61063;10,19;0;0;0;0,0023926511894857296;0,025122837373181287;-0,0011963255947428648;-0,4272591326639607;-1,2207403790398876;0,8545182653279214
12:23:53.164;0;Wrist;1;61064;10,19;0;0;0;0;0,007177953801294938;-0,00837427881394343;-0,5493331705679495;-1,1902218695638904;0,793481246375927
12:23:53.165;0;Wrist;1;61065;9,87;0;0;0;-0,009570604757942918;0,004785302378971459;0,021533861403884816;-0,5798516800439466;-1,3122959074678793;0,9155552842799157
12:23:53.165;0;Wrist;1;61066;9,87;0;0;0;-0,00598162785729545;0,00598162785729545;0,019141209515885837;-0,6714072084719382;-1,1597033600878932;0,9155552842799157
12:23:53.165;0;Wrist;1;61067;9,87;0;0;0;-0,0011963255947428648;0,0011963255947428648;0,02990813928647725;-0,5188146610919523;-1,2512588885158848;0,9460737937559129
12:23:53.165;0;Wrist;1;61068;9,87;0;0;0;-0,02990813928647725;-0,003588976900647469;0,03230079117447623;-0,3967406231879635;-1,1597033600878932;1,0376293221839046
12:23:53.165;0;Wrist;1;61069;9,87;0;0;0;-0,028711815205179753;0,0011963255947428648;0,0346934430624752;-0,3967406231879635;-1,281777397991882;1,0071108127079074
12:23:53.215;0;Mov;1;14756;9,93;0;0;0;-0,01794488357188635;0,05024567474636257;0,0358897671437727;-0,15259254737998595;-1,9837031159398175;-0,3967406231879635
12:23:53.215;0;Mov;1;14757;9,93;0;0;0;-0,03349711525577372;-0,021533861403884816;0,004785302378971459;-0,27466658528397475;-2,197332682271798;-0,7019257179479355
12:23:53.215;0;Mov;1;14758;9,93;0;0;0;-0,0119632557145909;-0,0346934430624752;0,004785302378971459;-0,030518509475997192;-2,5025177770317697;-0,7324442274239327
12:23:53.215;0;Mov;1;14759;9,93;0;0;0;-0,0239265114291818;-0,004785302378971459;0,03708609495047418;0,12207403790398877;-2,685628833887753;-0,5798516800439466
12:23:53.216;0;Mov;1;14760;9,93;0;0;0;-0,0717795342875454;0,007177953801294938;0,04546037097036462;0,061037018951994385;-2,9297769096957307;-0,5188146610919523
12:23:53.224;0;Wrist;1;61070;9,93;0;0;0;-0,01794488357188635;0,007177953801294938;0,026319163317180778;-0,4272591326639607;-1,4648884548478653;1,1597033600878932
12:23:53.224;0;Wrist;1;61071;9,93;0;0;0;-0,02990813928647725;0,00837427881394343;0,03230079117447623;-0,5798516800439466;-1,4648884548478653;1,1291848506118962
12:23:53.224;0;Wrist;1;61072;9,93;0;0;0;-0,0466566987770661;0,00598162785729545;0,056227302603658026;-0,6103701895199438;-1,7090365306558428;1,2207403790398876
12:23:53.224;0;Wrist;1;61073;9,93;0;0;0;-0,06460158234895245;0,009570604757942918;0,06340525826765496;-0,7019257179479355;-1,8616290780358287;1,3428144169438765
12:23:53.225;0;Wrist;1;61074;9,93;0;0;0;-0,009570604757942918;0,03230079117447623;-0,009570604757942918;-0,7019257179479355;-2,0142216254158147;1,3428144169438765
12:23:53.301;0;Mov;1;14761;10,14;0;0;0;-0,004785302378971459;-0,004785302378971459;-0,014355907602589877;0,030518509475997192;-3,5706656086916717;-0,6103701895199438
12:23:53.301;0;Mov;1;14762;10,14;0;0;0;0,0346934430624752;0,01794488357188635;-0,009570604757942918;0,030518509475997192;-3,69273964659566;-0,5493331705679495
12:23:53.301;0;Mov;1;14763;10,14;0;0;0;0,013159581658590389;0,026319163317180778;0,01794488357188635;0;-3,6011841181676685;-0,640888698995941
12:23:53.301;0;Mov;1;14764;10,14;0;0;0;-0,007177953801294938;-0,0023926511894857296;-0,0119632557145909;0;-3,5401470992156745;-0,640888698995941
12:23:53.301;0;Mov;1;14765;10,14;0;0;0;0,00837427881394343;0,013159581658590389;-0,019141209515885837;-0,030518509475997192;-3,7232581560716573;-0,640888698995941
12:23:53.302;0;Wrist;1;61075;10,1;0;0;0;0,0239265114291818;0,027515489261180266;-0,0239265114291818;-0,8239997558519242;-1,9837031159398175;1,2512588885158848
12:23:53.302;0;Wrist;1;61076;10,1;0;0;0;0,021533861403884816;-0,015552232615238368;-0,025122837373181287;-0,7629627368999298;-1,7700735496078372;1,1291848506118962
12:23:53.302;0;Wrist;1;61077;10,1;0;0;0;0,0478530228583636;0,00598162785729545;-0,03349711525577372;-0,9460737937559129;-1,8616290780358287;0,9460737937559129
12:23:53.302;0;Wrist;1;61078;10,1;0;0;0;0,05024567474636257;0,007177953801294938;-0,0358897671437727;-0,9460737937559129;-1,7090365306558428;0,9155552842799157
12:23:53.302;0;Wrist;1;61079;10,1;0;0;0;0,052638326634361556;-0,0119632557145909;-0,04904935066506508;-0,8239997558519242;-1,3428144169438765;0,6714072084719382
12:23:53.323;0;Mov;1;14766;9,97;0;0;0;0,04306772280776963;0,021533861403884816;-0,020337535459885328;-0,030518509475997192;-3,662221137119663;-0,793481246375927
12:23:53.323;0;Mov;1;14767;9,97;0;0;0;-0,015552232615238368;-0,038282419031771674;-0,010766930701942408;0;-3,2349620044557024;-0,8850367748039186
12:23:53.323;0;Mov;1;14768;9,97;0;0;0;-0,026319163317180778;-0,03708609495047418;-0,003588976900647469;0,15259254737998595;-3,2349620044557024;-0,6714072084719382
12:23:53.323;0;Mov;1;14769;9,97;0;0;0;0,00837427881394343;0,0023926511894857296;-0,003588976900647469;0,24414807580797754;-3,3875545518356884;-0,45777764213995786
12:23:53.323;0;Mov;1;14770;9,97;0;0;0;0,009570604757942918;0,02273018548518231;-0,01794488357188635;0,21362956633198035;-3,3875545518356884;-0,5493331705679495
12:23:53.324;0;Wrist;1;61080;9,93;0;0;0;0,03947874311306917;-0,0011963255947428648;-0,05024567474636257;-0,8239997558519242;-0,8850367748039186;0,5188146610919523
12:23:53.324;0;Wrist;1;61081;9,93;0;0;0;0,027515489261180266;-0,01674855762788686;-0,03230079117447623;-0,7629627368999298;-0,8239997558519242;0,5493331705679495
12:23:53.324;0;Wrist;1;61082;9,93;0;0;0;0,01794488357188635;-0,026319163317180778;-0,025122837373181287;-0,8545182653279214;-0,7629627368999298;0,45777764213995786
12:23:53.324;0;Wrist;1;61083;9,93;0;0;0;0,013159581658590389;-0,02273018548518231;-0,021533861403884816;-0,6714072084719382;-0,8239997558519242;0,36622211371196634
12:23:53.324;0;Wrist;1;61084;9,93;0;0;0;0,025122837373181287;-0,009570604757942918;-0,014355907602589877;-0,7019257179479355;-0,6103701895199438;0,4882961516159551
12:23:53.365;0;Mov;1;14771;9,93;0;0;0;0,015552232615238368;0,0011963255947428648;-0,013159581658590389;0,24414807580797754;-3,1434064760277107;-0,6714072084719382
12:23:53.366;0;Mov;1;14772;9,93;0;0;0;0,007177953801294938;-0,0011963255947428648;-0,01794488357188635;0,18311105685598317;-2,9297769096957307;-0,640888698995941
12:23:53.366;0;Mov;1;14773;9,93;0;0;0;0,01674855762788686;0,0023926511894857296;-0,021533861403884816;0,18311105685598317;-2,7466658528397474;-0,5798516800439466
12:23:53.366;0;Mov;1;14774;9,93;0;0;0;0,0478530228583636;-0,004785302378971459;-0,01794488357188635;0,27466658528397475;-2,5940733054597613;-0,45777764213995786
12:23:53.366;0;Mov;1;14775;9,93;0;0;0;-0,031104465230476736;-0,009570604757942918;0,026319163317180778;0,24414807580797754;-2,1362956633198036;-0,45777764213995786
12:23:53.373;0;Wrist;1;61085;9,93;0;0;0;0,014355907602589877;-0,009570604757942918;-0,015552232615238368;-0,7324442274239327;-0,5188146610919523;0,36622211371196634
12:23:53.373;0;Wrist;1;61086;9,93;0;0;0;0,03230079117447623;-0,01674855762788686;-0,02273018548518231;-0,5188146610919523;-0,4882961516159551;0,3967406231879635
12:23:53.373;0;Wrist;1;61087;9,93;0;0;0;0,03708609495047418;-0,025122837373181287;-0,028711815205179753;-0,3051850947599719;-0,27466658528397475;0,5188146610919523
12:23:53.374;0;Wrist;1;61088;9,93;0;0;0;0,0346934430624752;-0,0011963255947428648;-0,03349711525577372;-0,4272591326639607;-0,061037018951994385;0,36622211371196634
12:23:53.374;0;Wrist;1;61089;9,93;0;0;0;0,020337535459885328;0;-0,021533861403884816;-0,36622211371196634;-0,15259254737998595;0,3051850947599719
12:23:53.426;0;Mov;1;14776;9,99;0;0;0;-0,0478530228583636;0;0,026319163317180778;0,09155552842799158;-2,197332682271798;-0,4882961516159551
12:23:53.426;0;Mov;1;14777;9,99;0;0;0;-0,03349711525577372;-0,00837427881394343;0,007177953801294938;0,09155552842799158;-2,6551103244117558;-0,5798516800439466
12:23:53.426;0;Mov;1;14778;9,99;0;0;0;-0,05383465071565905;-0,04306772280776963;0,0119632557145909;0,18311105685598317;-3,173924985503708;-0,5493331705679495
12:23:53.426;0;Mov;1;14779;9,99;0;0;0;0,03708609495047418;-0,031104465230476736;-0,038282419031771674;0,3357036042359691;-3,5706656086916717;-0,5188146610919523
12:23:53.426;0;Mov;1;14780;9,99;0;0;0;0,03947874311306917;0,013159581658590389;-0,026319163317180778;0,36622211371196634;-3,021332438123722;-0,4272591326639607
12:23:53.433;0;Wrist;1;61090;9,99;0;0;0;0,007177953801294938;-0,019141209515885837;-0,007177953801294938;-0,27466658528397475;0;0,3051850947599719
12:23:53.433;0;Wrist;1;61091;9,99;0;0;0;-0,010766930701942408;-0,025122837373181287;-0,027515489261180266;-0,15259254737998595;0,030518509475997192;0,36622211371196634
12:23:53.433;0;Wrist;1;61092;9,99;0;0;0;-0,0023926511894857296;0,0011963255947428648;-0,004785302378971459;-0,09155552842799158;-0,09155552842799158;0,4272591326639607
12:23:53.433;0;Wrist;1;61093;9,99;0;0;0;0,0011963255947428648;-0,007177953801294938;0,004785302378971459;-0,030518509475997192;-0,21362956633198035;0,3967406231879635
12:23:53.433;0;Wrist;1;61094;9,99;0;0;0;-0,004785302378971459;-0,003588976900647469;0,010766930701942408;0,061037018951994385;-0,27466658528397475;0,3967406231879635
12:23:53.456;0;Mov;1;14781;9,88;0;0;0;-0,02990813928647725;0,021533861403884816;0,02990813928647725;0,3357036042359691;-2,563554795983764;-0,21362956633198035
12:23:53.456;0;Mov;1;14782;9,88;0;0;0;-0,04546037097036462;0,027515489261180266;0,010766930701942408;0,030518509475997192;-2,807702871791742;-0,45777764213995786
12:23:53.456;0;Mov;1;14783;9,88;0;0;0;0,03349711525577372;-0,003588976900647469;-0,040675070919770656;-0,09155552842799158;-3,051850947599719;-0,6103701895199438
12:23:53.456;0;Mov;1;14784;9,88;0;0;0;0,01794488357188635;-0,00837427881394343;-0,009570604757942918;0;-2,685628833887753;-0,5188146610919523
12:23:53.456;0;Mov;1;14785;9,88;0;0;0;-0,009570604757942918;-0,052638326634361556;0,004785302378971459;0,030518509475997192;-2,4414807580797753;-0,5493331705679495
12:23:53.463;0;Wrist;1;61095;9,88;0;0;0;0,004785302378971459;-0,0023926511894857296;0,013159581658590389;0,21362956633198035;-0,4882961516159551;0,5798516800439466
12:23:53.463;0;Wrist;1;61096;9,88;0;0;0;0,015552232615238368;0;-0,01794488357188635;0,18311105685598317;-0,45777764213995786;0,6103701895199438
12:23:53.464;0;Wrist;1;61097;9,88;0;0;0;0,010766930701942408;0,013159581658590389;0,003588976900647469;0,15259254737998595;-0,4272591326639607;0,3357036042359691
12:23:53.464;0;Wrist;1;61098;9,88;0;0;0;-0,00598162785729545;-0,0023926511894857296;-0,010766930701942408;0,27466658528397475;-0,5188146610919523;0,3967406231879635
12:23:53.464;0;Wrist;1;61099;9,88;0;0;0;0,014355907602589877;-0,013159581658590389;-0,025122837373181287;0,061037018951994385;-0,4882961516159551;0,4272591326639607
12:23:53.515;0;Mov;1;14786;9,94;0;0;0;-0,05503097852236053;-0,007177953801294938;0,020337535459885328;0,09155552842799158;-2,533036286507767;-0,3967406231879635
12:23:53.516;0;Mov;1;14787;9,94;0;0;0;0,020337535459885328;0,0011963255947428648;-0,03349711525577372;0,12207403790398877;-2,8992584002197335;-0,3051850947599719
12:23:53.516;0;Mov;1;14788;9,94;0;0;0;0,04306772280776963;0,003588976900647469;-0,06101260637965598;0,24414807580797754;-2,838221381267739;-0,3967406231879635
12:23:53.516;0;Mov;1;14789;9,94;0;0;0;0,026319163317180778;-0,0023926511894857296;-0,06101260637965598;0,15259254737998595;-2,4719992675557725;-0,36622211371196634
12:23:53.516;0;Mov;1;14790;9,94;0;0;0;0,040675070919770656;-0,0011963255947428648;-0,052638326634361556;0,24414807580797754;-2,166814172795801;-0,3967406231879635
12:23:53.523;0;Wrist;1;61100;9,93;0;0;0;0,013159581658590389;0,007177953801294938;-0,019141209515885837;0,15259254737998595;-0,5188146610919523;0,4272591326639607
12:23:53.523;0;Wrist;1;61101;9,93;0;0;0;0,020337535459885328;0,0119632557145909;0,009570604757942918;0,24414807580797754;-0,3051850947599719;0,3967406231879635
12:23:53.523;0;Wrist;1;61102;9,93;0;0;0;0,0023926511894857296;0,00837427881394343;-0,01794488357188635;0,36622211371196634;-0,3051850947599719;0,27466658528397475
12:23:53.523;0;Wrist;1;61103;9,93;0;0;0;0,026319163317180778;0,0023926511894857296;-0,02273018548518231;0,24414807580797754;-0,030518509475997192;0,15259254737998595
12:23:53.523;0;Wrist;1;61104;9,93;0;0;0;0,00598162785729545;0,021533861403884816;-0,004785302378971459;0,21362956633198035;0,12207403790398877;0,030518509475997192
12:23:53.553;0;Wrist;1;61105;9,83;0;0;0;0,00598162785729545;0,010766930701942408;-0,00598162785729545;0,15259254737998595;0,061037018951994385;-0,09155552842799158
12:23:53.553;0;Wrist;1;61106;9,83;0;0;0;0,019141209515885837;0,0119632557145909;-0,03708609495047418;0,3051850947599719;0,24414807580797754;-0,24414807580797754
12:23:53.553;0;Wrist;1;61107;9,83;0;0;0;0,03947874311306917;0,058619954491657;-0,01674855762788686;0,061037018951994385;0,3357036042359691;-0,3051850947599719
12:23:53.553;0;Wrist;1;61108;9,83;0;0;0;0,028711815205179753;0,02273018548518231;0,03230079117447623;0;0,4882961516159551;-0,5798516800439466
12:23:53.553;0;Wrist;1;61109;9,83;0;0;0;0,007177953801294938;0,0023926511894857296;0,0478530228583636;0,030518509475997192;0,4882961516159551;-0,7629627368999298
12:23:53.576;0;Mov;1;14791;10;0;0;0;0,0011963255947428648;-0,014355907602589877;-0,03947874311306917;0,4882961516159551;-1,8005920590838342;-0,4882961516159551
12:23:53.576;0;Mov;1;14792;10;0;0;0;0,015552232615238368;-0,01794488357188635;-0,06340525826765496;0,4882961516159551;-1,6785180211798456;-0,4272591326639607
12:23:53.576;0;Mov;1;14793;10;0;0;0;0,0837427900021363;0;-0,07895748622613834;0,793481246375927;-1,6174810022278512;-0,12207403790398877
12:23:53.576;0;Mov;1;14794;10;0;0;0;0,07895748622613834;-0,009570604757942918;-0,10168767357402264;0,9460737937559129;-1,1597033600878932;-0,061037018951994385
12:23:53.576;0;Mov;1;14795;10;0;0;0;0,038282419031771674;0,05024567474636257;-0,058619954491657;0,9460737937559129;-0,45777764213995786;-0,030518509475997192
12:23:53.612;0;Wrist;1;61110;9,89;0;0;0;-0,003588976900647469;0,031104465230476736;0,0693868861249504;0,27466658528397475;0,5188146610919523;-0,8850367748039186
12:23:53.613;0;Wrist;1;61111;9,89;0;0;0;-0,038282419031771674;0,06101260637965598;0,14236275194460127;0,12207403790398877;0,640888698995941;-0,9155552842799157
12:23:53.613;0;Wrist;1;61112;9,89;0;0;0;-0,0346934430624752;0,1076693014313181;0,19021577480296487;0,030518509475997192;0,45777764213995786;-1,1291848506118962
12:23:53.613;0;Wrist;1;61113;9,89;0;0;0;-0,0693868861249504;0,11006195704472106;0,26917325357829525;0,27466658528397475;0,3967406231879635;-1,5259254737998595
12:23:53.613;0;Wrist;1;61114;9,89;0;0;0;-0,14595171673768578;0,18543046357615894;0,3433454509300516;0,18311105685598317;-0,061037018951994385;-1,7090365306558428
12:23:53.636;0;Mov;1;14796;10,04;0;0;0;-0,015552232615238368;0,03708609495047418;-0,0346934430624752;0,7324442274239327;-0,4272591326639607;-0,24414807580797754
12:23:53.636;0;Mov;1;14797;10,04;0;0;0;-0,019141209515885837;0,04546037097036462;-0,03349711525577372;0,640888698995941;-0,5493331705679495;-0,6103701895199438
12:23:53.636;0;Mov;1;14798;10,04;0;0;0;0,026319163317180778;0,058619954491657;-0,0933133975541322;0,3967406231879635;-0,7629627368999298;-0,8239997558519242
12:23:53.636;0;Mov;1;14799;10,04;0;0;0;-0,01794488357188635;0,1674855800042726;-0,06699423051154745;0,18311105685598317;-0,7324442274239327;-1,1597033600878932
12:23:53.636;0;Mov;1;14800;10,04;0;0;0;-0,026319163317180778;0,19380473959604938;-0,02273018548518231;-0,15259254737998595;-1,403851435895871;-1,9531846064638203
12:23:53.673;0;Wrist;1;61115;9,94;0;0;0;-0,21414228623214668;0,11484726082071901;0,3888058107242042;-0,18311105685598317;-1,0681478316599018;-1,8616290780358287
12:23:53.673;0;Wrist;1;61116;9,94;0;0;0,6579790643024994;-0,4426404614398633;0,36487929929502244;0,6579790643024994;-1,0376293221839046;-3,326517532883694;-1,8616290780358287
12:23:53.673;0;Wrist;1;61117;9,94;0,5850032282860805;0;0,537150205427717;-0,4199102815427869;0,5850032282860805;0,537150205427717;-5,21866512039552;-10,711996826075014;-1,3428144169438765
12:23:53.673;0;Wrist;1;61118;9,94;0;0;0;-0,16868191153637807;0,290707131746498;0,22012391408944212;-9,552293465987121;-16,785180211798455;-1,5259254737998595
12:23:53.673;0;Wrist;1;61119;9,94;0;0;0;-0,004785302378971459;0,24285409398651844;0,07776116214484084;-11,07821893978698;-18,433179723502302;-2,563554795983764
12:23:53.696;0;Mov;1;14801;10,09;0;0;0;-0,007177953801294938;0,11604358490201651;-0,0705832102062479;-0,7324442274239327;-1,9837031159398175;-2,71614734336375
12:23:53.696;0;Mov;1;14802;10,09;0;0;0;0,13518479255520036;0,07776116214484084;-0,16987822816686757;-1,281777397991882;-2,7466658528397474;-3,6011841181676685
12:23:53.696;0;Mov;1;14803;10,09;0;0;0;0,11365092928861355;-0,019141209515885837;-0,08493911408343378;-1,8616290780358287;-2,2278511917477952;-3,845332193975646
12:23:53.696;0;Mov;1;14804;10,09;0;0;0;0,02990813928647725;-0,20337534714804528;-0,0478530228583636;-2,3194067201757864;-1,6174810022278512;-3,662221137119663
12:23:53.696;0;Mov;1;14805;10,09;0;0;0;0,07895748622613834;-0,10288399765532014;-0,0239265114291818;-2,685628833887753;-1,1902218695638904;-3,051850947599719
12:23:53.698;0;Mov;1;14806;9,86;0;0;0;0,08733176969683676;0;-0,0717795342875454;-2,380443739127781;-0,6103701895199438;-2,533036286507767
12:23:53.698;0;Mov;1;14807;9,86;0;0;0;-0,09929502541142765;0,040675070919770656;0,07297585836884289;-2,7466658528397474;-0,45777764213995786;-2,288888210699789
12:23:53.698;0;Mov;1;14808;9,86;0;0;0;-0,2488357218438139;0,14475540010719626;0,23328348643452254;-4,058961760307627;-1,3733329264198737;-2,563554795983764
12:23:53.698;0;Mov;1;14809;9,86;0;0;0;-0,17466353939367352;0,119632557145909;0,117239908983314;-6,134220404675435;-2,8992584002197335;-3,4180730613116856
12:23:53.698;0;Mov;1;14810;9,86;0;0;0;-0,117239908983314;0,11006195704472106;0,1184362330646115;-7,843256935331278;-3,936887722403638;-4,058961760307627
12:23:53.703;0;Wrist;1;61120;9,84;0;0;-0,5646656816499832;0,42349924633587144;0,16150395214697713;-0,5646656816499832;-10,711996826075014;-17,792291024506362;-4,608294930875576
12:23:53.703;0;Wrist;1;61121;9,84;0;0,708224750225074;-0,5850032282860805;0,708224750225074;-0,1292031646979049;-0,5850032282860805;-9,216589861751151;-14,954069643238624;-7,72118289742729
12:23:53.703;0;Wrist;1;61122;9,84;0;0,7369365877826777;-0,8446058892139958;0,7369365877826777;-0,39957273490668965;-0,8446058892139958;-9,430219428083133;-10,467848750267036;-11,169774468214973
12:23:53.703;0;Wrist;1;61123;9,84;-1,6808374279000213;0,6173040306367688;-0,651997436445204;0,6173040306367688;-1,6808374279000213;-0,651997436445204;-12,054811243018891;-5,615405743583484;-17,639698477126377
12:23:53.703;0;Wrist;1;61124;9,84;-4,169194616534928;0,7309549599253823;0;0,7309549599253823;-4,169194616534928;0,14954069643238624;-3,7842951750236518;0,15259254737998595;-35,9202856532487
12:23:53.755;0;Mov;1;14811;9,9;0;0;0;-0,07656483806354335;-0,020337535459885328;0,13039949623001038;-9,094515823847164;-4,425183874019593;-4,577776421399578
12:23:53.755;0;Mov;1;14812;9,9;0;0;0;-0,08613544561553926;-0,02273018548518231;0,12800683316579944;-9,643848994415112;-4,516739402447585;-4,760887478255562
12:23:53.755;0;Mov;1;14813;9,9;0;0;0;0,04546037097036462;0,04546037097036462;0,06460158234895245;-9,88799707022309;-4,66933194982757;-4,699850459303567
12:23:53.755;0;Mov;1;14814;9,9;0;0;0;0,07536851398224585;0,021533861403884816;0,11245460520731605;-10,284737693411055;-3,7232581560716573;-4,547257911923582
12:23:53.755;0;Mov;1;14815;9,9;0;0;0;0,04546037097036462;-0,06340525826765496;0,04546037097036462;-10,559404278695029;-2,3194067201757864;-4,24207281716361
12:23:53.763;0;Wrist;1;61125;9,9;-1,8471267061754204;0,6113224027794733;0;0,6113224027794733;-1,8471267061754204;0,40316172950300605;17,60917996765038;13,763847773674733;-54,963835566270944
12:23:53.763;0;Wrist;1;61126;9,9;1,1329203876995149;0,7931638419560839;1,085067364841151;0,7931638419560839;1,1329203876995149;1,085067364841151;31,250953703421125;24,323252052369764;-64,72975859859004
12:23:53.763;0;Wrist;1;61127;9,9;3,6870756019775994;0,6531937977805414;3,5961547631763664;0,6531937977805414;3,6870756019775994;3,5961547631763664;33,53984191412091;34,45539719840083;-65,70635090182195
12:23:53.763;0;Wrist;1;61128;9,9;3,9299295022431107;1,4583208954512161;4,549626434369945;1,4583208954512161;3,9299295022431107;4,549626434369945;13,397625659962767;31,09836115604114;-58,839686269722584
12:23:53.763;0;Wrist;1;61129;9,9;2,204828075884274;2,208417100283822;2,7970092337565235;2,208417100283822;2,204828075884274;2,7970092337565235;-4,058961760307627;27,130954924161504;-50,14191106906339
12:23:53.815;0;Mov;1;14816;9,95;0;0;0;0,038282419031771674;-0,0933133975541322;0,0346934430624752;-9,949034089175084;-1,281777397991882;-3,662221137119663
12:23:53.815;0;Mov;1;14817;9,95;0;0;0;-0,02273018548518231;-0,16150395214697713;0,04426404688906713;-9,063997314371166;-0,5188146610919523;-2,9908139286477247
12:23:53.815;0;Mov;1;14818;9,95;0;0;0;-0,004785302378971459;-0,1315958128604999;0,025122837373181287;-7,812738425855281;-0,3967406231879635;-2,2583697012237924
12:23:53.816;0;Mov;1;14819;9,95;0;0;0;-0,038282419031771674;-0,014355907602589877;0,08972441785943175;-7,232886745811334;-0,21362956633198035;-1,6785180211798456
12:23:53.816;0;Mov;1;14820;9,95;0;0;0;-0,05383465071565905;0,021533861403884816;0,06340525826765496;-7,110812707907346;-0,12207403790398877;-1,4648884548478653
12:23:53.826;0;Wrist;1;61130;9,96;0,5132236939985351;2,64507593386639;0,5192053218558306;2,64507593386639;0,5132236939985351;0,5192053218558306;-5,371257667775506;26,703695791497545;-46,479689931943724
12:23:53.826;0;Wrist;1;61131;9,96;0,5096347292054506;3,1989747211371196;0;3,1989747211371196;0,5096347292054506;-0,19739371929074984;1,098666341135899;28,839991454817348;-47,57835627307962
12:23:53.826;0;Wrist;1;61132;9,96;1,4248237317651906;3,812689786980804;0,5694510077784051;3,812689786980804;1,4248237317651906;0,5694510077784051;2,3499252296517836;31,189916684469132;-49,22635578478347
12:23:53.826;0;Wrist;1;61133;9,96;2,0146124053926204;4,578338152714622;1,30878019901883;4,578338152714622;2,0146124053926204;1,30878019901883;-3,4180730613116856;30,579546494949188;-48,40235602893155
12:23:53.826;0;Wrist;1;61134;9,96;2,3304422608874784;5,5342021889400925;1,2178594794305246;5,5342021889400925;2,3304422608874784;1,2178594794305246;-7,17184972685934;27,1614734336375;-44,49598681600391
12:23:53.846;0;Mov;1;14821;9,87;0;0;0;-0,025122837373181287;-0,010766930701942408;0,038282419031771674;-6,683553575243385;-0,5188146610919523;-1,6785180211798456
12:23:53.847;0;Mov;1;14822;9,87;0;0;0;0,009570604757942918;0,00598162785729545;-0,01674855762788686;-6,042664876247444;-0,7629627368999298;-1,5259254737998595
12:23:53.847;0;Mov;1;14823;9,87;0;0;0;0,05144199882766007;-0,0239265114291818;-0,03230079117447623;-5,3102206488235115;-0,6103701895199438;-1,281777397991882
12:23:53.847;0;Mov;1;14824;9,87;0;0;0;0,056227302603658026;-0,019141209515885837;-0,058619954491657;-4,66933194982757;-0,4882961516159551;-1,1291848506118962
12:23:53.847;0;Mov;1;14825;9,87;0;0;0;0,0598162785729545;0,00837427881394343;-0,031104465230476736;-4,058961760307627;-0,18311105685598317;-0,8545182653279214
12:23:53.853;0;Wrist;1;61135;9,86;2,6606282139805293;6,473317762535478;0,6208929954298532;6,473317762535478;2,6606282139805293;0,6208929954298532;-4,1810357982116155;22,339548936429946;-38,209173863948486
12:23:53.853;0;Wrist;1;61136;9,86;3,0817347674489577;7,272463053529465;0;7,272463053529465;3,0817347674489577;0,20457167868015075;1,6785180211798456;17,94488357188635;-29,99969481490524
12:23:53.853;0;Wrist;1;61137;9,86;3,1810298375652333;7,938816587572863;0;7,938816587572863;3,1810298375652333;0,29549242807168796;5,493331705679495;13,092440565202795;-20,53895687734611
12:23:53.853;0;Wrist;1;61138;9,86;2,897500486388745;8,565691091647084;0;8,565691091647084;2,897500486388745;0,20696432684274574;8,453627124851222;7,477034821619312;-9,613330484939116
12:23:53.853;0;Wrist;1;61139;9,86;2,3579577967162084;9,123179380169072;0;9,123179380169072;2,3579577967162084;0,0346934430624752;11,07821893978698;2,1362956633198036;1,281777397991882
12:23:53.935;0;Mov;1;14826;10,04;0;0;0;-0,04306772280776963;-0,013159581658590389;-0,021533861403884816;-3,3875545518356884;0,3051850947599719;-0,640888698995941
12:23:53.935;0;Mov;1;14827;10,04;0;0;0;0,02990813928647725;0,08135014183954131;-0,08135014183954131;-3,2654805139316996;-0,15259254737998595;-0,640888698995941
12:23:53.935;0;Mov;1;14828;10,04;0;0;0;0,12681051653530992;0,03708609495047418;-0,11125828112601856;-2,8992584002197335;-0,15259254737998595;-0,8850367748039186
12:23:53.935;0;Mov;1;14829;10,04;0;0;0;0,056227302603658026;0,0239265114291818;-0,03230079117447623;-2,533036286507767;0,6103701895199438;-0,6103701895199438
12:23:53.935;0;Mov;1;14830;10,04;0;0;0;-0,020337535459885328;0,07417218990094836;-0,0011963255947428648;-2,5940733054597613;0,9155552842799157;-0,5798516800439466
12:23:53.943;0;Wrist;1;61140;10,03;1,8315744260612812;9,413886303292948;0,5120273326631978;9,413886303292948;1,8315744260612812;0,5120273326631978;12,787255470442824;-3,326517532883694;11,047700430310984
12:23:53.943;0;Wrist;1;61141;10,03;1,250160222174749;9,569408627582629;0,9582568185026094;9,569408627582629;1,250160222174749;0,9582568185026094;13,153477584154789;-10,315256202887051;19,287697988830224
12:23:53.944;0;Wrist;1;61142;10,03;0,5754326356357006;9,44977607043672;1,6724631965849788;9,44977607043672;0,5754326356357006;1,6724631965849788;13,641773735770744;-18,55525376140629;25,086214789269693
12:23:53.944;0;Wrist;1;61143;10,03;0;9,149497779778436;2,3603504001739557;9,149497779778436;0,26079899246002075;2,3603504001739557;15,472884304330577;-28,77895443586535;28,351695303201392
12:23:53.944;0;Wrist;1;61144;10,03;0;8,672164448988312;2,9955993739890743;8,672164448988312;0,4964751121555223;2,9955993739890743;18,03643910031434;-39,67406231879635;30,854213080233162
12:23:53.966;0;Mov;1;14831;9,95;0;0;0;-0,05144199882766007;-0,0717795342875454;0,025122837373181287;-2,6245918149357585;0,9765923032319102;-0,7629627368999298
12:23:53.966;0;Mov;1;14832;9,95;0;0;0;-0,03349711525577372;-0,0837427900021363;0,026319163317180778;-2,4414807580797753;1,2207403790398876;-0,6103701895199438
12:23:53.966;0;Mov;1;14833;9,95;0;0;0;-0,0023926511894857296;-0,0933133975541322;-0,013159581658590389;-1,6785180211798456;0,8850367748039186;-0,36622211371196634
12:23:53.966;0;Mov;1;14834;9,95;0;0;0;-0,03230079117447623;-0,11604358490201651;0,025122837373181287;-0,9765923032319102;0,640888698995941;-0,09155552842799158
12:23:53.966;0;Mov;1;14835;9,95;0;0;0;-0,05024567474636257;-0,11245460520731605;0,028711815205179753;-0,45777764213995786;0,8239997558519242;0,21362956633198035
12:23:53.973;0;Wrist;1;61145;9,96;0,7979491680845058;8,19961584826197;3,3975646229438152;8,19961584826197;0,7979491680845058;3,3975646229438152;16,998809778130436;-51,72887356181524;34,08917508468886
12:23:53.975;0;Wrist;1;61146;9,96;0,9032258064516129;7,561974032563249;3,572228251747185;7,561974032563249;0,9032258064516129;3,572228251747185;14,160588396862698;-61,9525742362743;38,23969237342448
12:23:53.975;0;Wrist;1;61147;9,96;1,015680434011353;6,810681764427625;3,3293741130558185;6,810681764427625;1,015680434011353;3,3293741130558185;12,81777397991882;-71,47434919278543;42,695394756920074
12:23:53.975;0;Wrist;1;61148;9,96;1,2058962237159336;6,078530323953978;2,6163639770958587;6,078530323953978;1,2058962237159336;2,6163639770958587;12,72621845149083;-78,89034699545275;47,30368968779565
12:23:53.975;0;Wrist;1;61149;9,96;1,2956206415753655;5,3009187025055695;1,9667592633213293;5,3009187025055695;1,2956206415753655;1,9667592633213293;13,092440565202795;-82,30842005676443;51,393169957579275
12:23:54.010;0;Wrist;1;61150;9,9;1,4702841511658071;4,470668851283303;1,768169242301706;4,470668851283303;1,4702841511658071;1,768169242301706;14,496292001098666;-81,88116092410047;54,99435407574694
12:23:54.010;0;Wrist;1;61151;9,9;1,7873104276024658;3,6188848536637472;1,8770348454618977;3,6188848536637472;1,7873104276024658;1,8770348454618977;16,144291512802514;-80,17212439344462;58,50398266548662
12:23:54.010;0;Wrist;1;61152;9,9;1,8674643124179815;2,950138954588458;1,5803460560548723;2,950138954588458;1,8674643124179815;1,5803460560548723;17,029328287606432;-78,43256935331279;62,16620380260628
12:23:54.011;0;Wrist;1;61153;9,9;1,6856227540284432;2,395043746375927;0,783593249305704;2,395043746375927;1,6856227540284432;0,783593249305704;17,120883816034425;-74,64827417828913;65,43168431653798
12:23:54.012;0;Wrist;1;61154;9,9;1,4595171971800898;1,836359752189703;0;1,836359752189703;1,4595171971800898;0,297885061332667;16,388439588610492;-68,08679464094973;67,69005401776177
12:23:54.026;0;Mov;1;14836;10;0;0;0;-0,019141209515885837;-0,13757744071779535;0,013159581658590389;0,5188146610919523;0,7019257179479355;0,5493331705679495
12:23:54.026;0;Mov;1;14837;10;0;0;0;0,0346934430624752;-0,08613544561553926;-0,04546037097036462;1,5259254737998595;0,9460737937559129;0,9155552842799157
12:23:54.026;0;Mov;1;14838;10;0;0;0;-0,004785302378971459;-0,08733176969683676;0,056227302603658026;1,8616290780358287;1,8005920590838342;1,3122959074678793
12:23:54.026;0;Mov;1;14839;10;0;0;0;0,015552232615238368;-0,02273018548518231;0,0119632557145909;2,8992584002197335;1,3733329264198737;1,7700735496078372
12:23:54.026;0;Mov;1;14840;10;0;0;0;0,0346934430624752;0,013159581658590389;0,020337535459885328;3,7232581560716573;1,6479995117038484;1,8616290780358287
12:23:54.055;0;Mov;1;14841;9,91;0;0;0;0,09929502541142765;0,040675070919770656;0,03708609495047418;4,333628345591602;2,3194067201757864;1,8921475875118259
12:23:54.055;0;Mov;1;14842;9,91;0;0;0;0,16628926337378308;-0,01794488357188635;-0,04546037097036462;5,340739158299509;3,814813684499649;2,1057771538438064
12:23:54.055;0;Mov;1;14843;9,91;0;0;0;0,13997008888039034;-0,11125828112601856;-0,09929502541142765;6,561479537339396;5,615405743583484;2,7466658528397474
12:23:54.055;0;Mov;1;14844;9,91;0;0;0;0,08493911408343378;-0,19500107112815485;-0,14834437980189671;6,653035065767388;7,141331217383343;3,967406231879635
12:23:54.055;0;Mov;1;14845;9,91;0;0;0;0,03708609495047418;-0,08493911408343378;-0,117239908983314;4,791405987731559;7,812738425855281;5,523850215155492
12:23:54.078;0;Wrist;1;61155;9,97;1,3757744071779534;0,9917539225821711;1,0479811767555773;0,9917539225821711;1,3757744071779534;1,0479811767555773;14,77095858638264;-61,403241065706354;68,60560930204169
12:23:54.078;0;Wrist;1;61156;9,97;1,3566332218771935;0;1,9476180780205694;0,4091433573603015;1,3566332218771935;1,9476180780205694;13,214514603106783;-58,534501174962614;69,67375713370159
12:23:54.078;0;Wrist;1;61157;9,97;1,0946378978850673;0;2,4476822145756403;-0,08493911408343378;1,0946378978850673;2,4476822145756403;12,298959318826869;-56,794946134830774;69,97894222846156
12:23:54.080;0;Wrist;1;61158;9,97;0,9654347480887784;-0,8111087255279702;3,7552661118655966;-0,8111087255279702;0,9654347480887784;3,7552661118655966;14,496292001098666;-56,21509445478683;69,49064607684561
12:23:54.080;0;Wrist;1;61159;9,97;1,235804363002411;-1,5444562889110995;5,209997863704337;-1,5444562889110995;1,235804363002411;5,209997863704337;17,853328043458358;-60,9149449140904;69,82634968108158
12:23:54.122;0;Wrist;1;61160;9,95;1,001324574839015;-2,057679982909635;5,212390705587939;-2,057679982909635;1,001324574839015;5,212390705587939;16,663106173894466;-70,37568285164953;71,13864558854945
12:23:54.122;0;Wrist;1;61161;9,95;0;-2,5182653279213842;4,00649424344615;-2,5182653279213842;0,06699423051154745;4,00649424344615;10,895107882930997;-80,84353160191657;71,01657155064547
12:23:54.122;0;Wrist;1;61162;9,95;-0,9606494815668203;-2,7838495571001314;2,6103823492385634;-2,7838495571001314;-0,9606494815668203;2,6103823492385634;6,469924008911405;-88,68678853724784;68,02575762199774
12:23:54.122;0;Wrist;1;61163;9,95;-1,6246101737266152;-3,190600251396222;1,7897030310602131;-3,190600251396222;-1,6246101737266152;1,7897030310602131;5,340739158299509;-90,09063997314371;60,73183385723441
12:23:54.122;0;Wrist;1;61164;9,95;-1,802862707716605;-3,6739159253212073;1,5935057327112643;-3,6739159253212073;-1,802862707716605;1,5935057327112643;5,554368724631489;-89,41923276467178;50,66072573015534
12:23:54.146;0;Mov;1;14846;10,08;0;0;0;-0,03230079117447623;-0,014355907602589877;-0,04187139500106815;4,4557023834955904;7,782219916379284;6,256294442579424
12:23:54.147;0;Mov;1;14847;10,08;0;0;0;-0,03947874311306917;-0,08852809377813425;-0,01674855762788686;6,40888698995941;7,324442274239326;6,164738914151433
12:23:54.147;0;Mov;1;14848;10,08;0;0;0;-0,0466566987770661;0,013159581658590389;-0,013159581658590389;7,38547929319132;6,683553575243385;6,225775933103427
12:23:54.147;0;Mov;1;14849;10,08;0;0;0;-0,05024567474636257;0,0705832102062479;-0,010766930701942408;8,514664143803216;5,859553819391461;5,676442762535478
12:23:54.147;0;Mov;1;14850;10,08;0;0;0;-0,00598162785729545;0,02273018548518231;-0,06819056204365291;8,911404766991181;5,4322946867275;4,943998535111545
12:23:54.147;0;Mov;1;14851;9,78;0;0;0;0,02990813928647725;0,08493911408343378;-0,04546037097036462;7,507553331095309;4,913480025635548;4,821924497207556
12:23:54.147;0;Mov;1;14852;9,78;0;0;0;0,03708609495047418;0,04904935066506508;-0,119632557145909;6,988738670003357;4,699850459303567;4,333628345591602
12:23:54.147;0;Mov;1;14853;9,78;0;0;0;0,0705832102062479;0,11006195704472106;-0,0945097216354297;6,256294442579424;4,638813440351573;4,0284432508316295
12:23:54.147;0;Mov;1;14854;9,78;0;0;0;0,0957060457167272;0,08613544561553926;-0,1064729773500206;5,462813196203498;5,340739158299509;3,69273964659566
12:23:54.148;0;Mov;1;14855;9,78;0;0;0;0,05144199882766007;0,07776116214484084;-0,08613544561553926;3,7537766655476545;6,073183385723441;3,662221137119663
12:23:54.153;0;Wrist;1;61165;9,79;-1,7813287997451706;-3,9729973181859797;1,0611408534119693;-3,9729973181859797;-1,7813287997451706;1,0611408534119693;6,500442518387402;-89,38871425519578;40,74221015045625
12:23:54.153;0;Wrist;1;61166;9,79;-1,6150395214697715;-4,176372665334025;0;-4,176372665334025;-1,6150395214697715;0,19978636745334483;7,629627368999298;-88,47315897091586;31,09836115604114
12:23:54.153;0;Wrist;1;61167;9,79;-1,3303141069902646;-4,339073038422804;-0,5036531013481551;-4,339073038422804;-1,3303141069902646;-0,5036531013481551;8,789330729087192;-85,9401226844081;22,858363597521898
12:23:54.153;0;Wrist;1;61168;9,79;-0,8637470745147557;-4,408459730826746;-0,9738090390102847;-4,408459730826746;-0,8637470745147557;-0,9738090390102847;9,12503433332316;-81,66753135776848;16,479995117038484
12:23:54.153;0;Wrist;1;61169;9,79;0;-4,48861373485519;-0,9044221677869503;-4,48861373485519;-0,4881008510372478;-0,9044221677869503;7,599108859523301;-76,54042176580096;11,719107638782923
12:23:54.212;0;Wrist;1;61170;9,93;0;-4,695577867976928;0;-4,695577867976928;-0,1315958128604999;-0,1387737722499008;7,293923764763329;-73,42753379924925;8,6977752006592
12:23:54.212;0;Wrist;1;61171;9,93;0;-4,835548150578326;0;-4,835548150578326;0,26079899246002075;0,17825251908837397;9,704886013367107;-72,8476821192053;8,667256691183203
12:23:54.212;0;Wrist;1;61172;9,93;0;-4,7960691206091495;0;-4,7960691206091495;0,412732322153386;-0,4007690664387951;10,376293221839045;-73,73271889400921;10,742515335551012
12:23:54.212;0;Wrist;1;61173;9,93;0;-4,677632984405042;-1,360222246276742;-4,677632984405042;0,30386668918996246;-1,360222246276742;8,331553086947233;-72,93923764763329;13,550218207342754
12:23:54.212;0;Wrist;1;61174;9,93;0;-4,6094427129429;-1,853108334032716;-4,6094427129429;0,21055330653744622;-1,853108334032716;5,401776177251503;-69,27701651051363;16,235847041230507
12:23:54.236;0;Mov;1;14856;10,06;0;0;0;0,08135014183954131;0,13279214439260537;-0,07656483806354335;2,5940733054597613;6,836146122623371;3,2349620044557024
12:23:54.236;0;Mov;1;14857;10,06;0;0;0;0,10527665326872311;0,0705832102062479;-0,0945097216354297;2,380443739127781;7,93481246375927;2,7466658528397474
12:23:54.236;0;Mov;1;14858;10,06;0;0;0;0,040675070919770656;-0,021533861403884816;-0,06460158234895245;1,1902218695638904;8,972441785943175;2,8687398907437363
12:23:54.236;0;Mov;1;14859;10,06;0;0;0;0,015552232615238368;0,05503097852236053;-0,00598162785729545;-0,061037018951994385;9,460737937559129;3,1128879665517135
12:23:54.236;0;Mov;1;14860;10,06;0;0;0;0,015552232615238368;0,08493911408343378;-0,004785302378971459;-0,12207403790398877;9,704886013367107;3,2349620044557024
12:23:54.270;0;Mov;1;14861;9,98;0;0;0;0,031104465230476736;0,1064729773500206;0,0011963255947428648;-0,5798516800439466;10,071108127079073;2,9602954191717274
12:23:54.270;0;Mov;1;14862;9,98;0;0;0;0,09092074194072924;0,03349711525577372;-0,031104465230476736;-1,586962492751854;10,834070863979003;2,838221381267739
12:23:54.270;0;Mov;1;14863;9,98;0;0;0;0,04187139500106815;0,03708609495047418;0,027515489261180266;-1,9837031159398175;11,84118167668691;3,0823694570757163
12:23:54.270;0;Mov;1;14864;9,98;0;0;0;0,08135014183954131;0,028711815205179753;0,00598162785729545;-1,4954069643238623;12,359996337778863;3,0823694570757163
12:23:54.270;0;Mov;1;14865;9,98;0;0;0;0,17585985602416304;-0,11006195704472106;-0,07417218990094836;-0,8850367748039186;13,397625659962767;3,6317026276436657
12:23:54.295;0;Mov;1;14866;9,83;0;0;0;-0,0346934430624752;-0,0945097216354297;0,0693868861249504;0,09155552842799158;14,55732902005066;4,547257911923582
12:23:54.295;0;Mov;1;14867;9,83;0;0;0;-0,10288399765532014;0,040675070919770656;0,05742363041035951;0,5188146610919523;14,526810510574663;5,035554063539537
12:23:54.295;0;Mov;1;14868;9,83;0;0;0;-0,1315958128604999;-0,0023926511894857296;0,003588976900647469;1,1597033600878932;14,404736472670674;4,8829615161595505
12:23:54.295;0;Mov;1;14869;9,83;0;0;0;0;0,009570604757942918;-0,0346934430624752;0,9765923032319102;14,923551133762627;4,791405987731559
12:23:54.296;0;Mov;1;14870;9,83;0;0;0;0,031104465230476736;0,058619954491657;0,031104465230476736;2,1057771538438064;14,67940305795465;4,852443006683553
12:23:54.303;0;Wrist;1;61175;10,06;0;-4,657295735801264;-1,8327708470030823;-4,657295735801264;0,24165777735602892;-1,8327708470030823;2,838221381267739;-64,48561052278207;19,104586931974243
12:23:54.303;0;Wrist;1;61176;10,06;0;-4,701559495834223;-1,8315744260612812;-4,701559495834223;0,2703695851104007;-1,8315744260612812;1,0376293221839046;-60,274056215094454;22,15643787957396
12:23:54.304;0;Wrist;1;61177;10,06;0;-4,74223446989349;-2,110318451109348;-4,74223446989349;0,0466566987770661;-2,110318451109348;-0,09155552842799158;-56,4897610400708;25,177770317697682
12:23:54.304;0;Wrist;1;61178;10,06;0;-4,860671082949309;-2,5553515160069584;-4,860671082949309;-0,3947874385814997;-2,5553515160069584;-0,09155552842799158;-52,40028077028718;27,466658528397474
12:23:54.304;0;Wrist;1;61179;10,06;-0,8099124237990967;-4,973125591296121;-2,883144627216407;-4,973125591296121;-0,8099124237990967;-2,883144627216407;0,9460737937559129;-46,90694906460769;27,80236213263344
12:23:54.363;0;Wrist;1;61180;10,07;-1,0384106437116611;-4,93843224509415;-2,8496474635303812;-4,93843224509415;-1,0384106437116611;-2,8496474635303812;1,3122959074678793;-40,62013611255226;26,367992187261574
12:23:54.363;0;Wrist;1;61181;10,07;-0,9881649577890865;-4,958769493697928;-2,1318521206549272;-4,958769493697928;-0,9881649577890865;-2,1318521206549272;0,5188146610919523;-35,15732291634877;23,59080782494583
12:23:54.363;0;Wrist;1;61182;10,07;-0,8374279000213629;-5,061653588213751;-1,2190557811593983;-5,061653588213751;-0,8374279000213629;-1,2190557811593983;-0,8239997558519242;-33,38724936674093;20,99673451948607
12:23:54.363;0;Wrist;1;61183;10,07;-0,8792992950224311;-4,908524105807673;-1,3877376628925444;-4,908524105807673;-0,8792992950224311;-1,3877376628925444;-3,2349620044557024;-34,363841669972835;19,01303140354625
12:23:54.363;0;Wrist;1;61184;10,07;-0,9833796316606647;-4,8164068460646385;-1,9643666598635823;-4,8164068460646385;-0,9833796316606647;-1,9643666598635823;-5,401776177251503;-33,81450849940489;16,51051362651448
12:23:54.364;0;Wrist;1;61185;9,72;-1,1030122484130376;-4,876223124637593;-2,2682333788567766;-4,876223124637593;-1,1030122484130376;-2,2682333788567766;-6,317331461531419;-30,945768608661155;13,58073671681875
12:23:54.364;0;Wrist;1;61186;9,72;-0,9845759929960021;-4,958769493697928;-2,3232642120883815;-4,958769493697928;-0,9845759929960021;-2,3232642120883815;-4,821924497207556;-27,680288094729452;10,254219183935056
12:23:54.364;0;Wrist;1;61187;9,72;-0,830249970435194;-5,022175035096286;-2,231147190771203;-5,022175035096286;-0,830249970435194;-2,231147190771203;-3,7537766655476545;-25,055696279793693;7,293923764763329
12:23:54.364;0;Wrist;1;61188;9,72;-0,8075197607348857;-5,127451494644002;-2,1174962614825894;-5,127451494644002;-0,8075197607348857;-2,1174962614825894;-4,0284432508316295;-22,91940061647389;4,821924497207556
12:23:54.364;0;Wrist;1;61189;9,72;-0,8996368416585284;-5,326041634876552;-1,7574022883159885;-5,326041634876552;-0,8996368416585284;-1,7574022883159885;-6,103701895199438;-21,485030671102024;2,380443739127781
12:23:54.386;0;Mov;1;14871;10,08;0;0;0;-0,18543046357615894;-0,01674855762788686;0,019141209515885837;3,051850947599719;14,313180944242683;5,401776177251503
12:23:54.386;0;Mov;1;14872;10,08;0;0;0;0,19380473959604938;0,0598162785729545;0,11365092928861355;3,845332193975646;13,641773735770744;6,225775933103427
12:23:54.386;0;Mov;1;14873;10,08;0;0;0;0,25362103307061984;-0,03708609495047418;0,00598162785729545;3,4180730613116856;15,900143436994536;6,622516556291391
12:23:54.386;0;Mov;1;14874;10,08;0;0;0;0,10288399765532014;-0,11604358490201651;0,12561418500320445;3,1434064760277107;18,18903164769433;6,74459059419538
12:23:54.386;0;Mov;1;14875;10,08;0;0;0;0,03947874311306917;0,17825251908837397;0,10886562551261558;4,1810357982116155;18,70784630878628;6,317331461531419
12:23:54.419;0;Mov;1;14876;9,98;0;0;0;-0,06340525826765496;-0,0346934430624752;0,07536851398224585;5,676442762535478;19,01303140354625;5,706961272011475
12:23:54.419;0;Mov;1;14877;9,98;0;0;0;-0,13518479255520036;-0,03708609495047418;0,09690236979802469;8,48414563432722;19,074068422498247;5,127109591967528
12:23:54.419;0;Mov;1;14878;9,98;0;0;0;-0,058619954491657;-0,09929502541142765;0,08254646592083881;11,597033600878934;18,18903164769433;4,425183874019593
12:23:54.419;0;Mov;1;14879;9,98;0;0;0;-0,06101260637965598;-0,19260842296555986;0,1064729773500206;13,275551622058778;15,839106418042542;5,1576281014435255
12:23:54.420;0;Mov;1;14880;9,98;0;0;0;-0,05024567474636257;-0,16030763551648763;0,1818414838814585;16,113773003326518;14,526810510574663;5,951109347819452
12:23:54.431;0;Wrist;1;61190;9,99;-1,0886562700277718;-5,282973818933684;-1,6270027771843623;-5,282973818933684;-1,0886562700277718;-1,6270027771843623;-9,826960051271096;-22,15643787957396;-0,4272591326639607
12:23:54.431;0;Wrist;1;61191;9,99;-1,3757744071779534;-5,153770847956785;-1,782525101474044;-5,153770847956785;-1,3757744071779534;-1,782525101474044;-11,963255714590899;-20,142216254158146;-4,089480269783624
12:23:54.431;0;Wrist;1;61192;9,99;-1,4415723136082035;-5,412176789910581;-1,6664815687276833;-5,412176789910581;-1,4415723136082035;-1,6664815687276833;-11,474959562974945;-16,75466170232246;-8,239997558519242
12:23:54.432;0;Wrist;1;61193;9,99;-1,2513565239036226;-5,475582331308939;-1,740653706472976;-5,475582331308939;-1,2513565239036226;-1,740653706472976;-12,17688528092288;-15,381328775902585;-12,085329752494888
12:23:54.432;0;Wrist;1;61194;9,99;-1,006109781754509;-5,72920306634724;-1,9476180780205694;-5,72920306634724;-1,006109781754509;-1,9476180780205694;-13,245033112582782;-10,956144901882992;-15,594958342234566
12:23:54.445;0;Mov;1;14881;9,84;0;0;0;-0,2787438760319071;-0,18303781541356395;0,19739371929074984;17,181920834986418;15,015106662190618;6,74459059419538
12:23:54.445;0;Mov;1;14882;9,84;0;0;0;-0,03349711525577372;-0,14954069643238624;0,21055330653744622;17,60917996765038;14,77095858638264;7,507553331095309
12:23:54.445;0;Mov;1;14883;9,84;0;0;0;0,29309976500747703;-0,0011963255947428648;0,18423414694566942;16,998809778130436;15,533921323282572;8,270516067995239
12:23:54.446;0;Mov;1;14884;9,84;0;0;0,5969664840006714;-0,117239908983314;0,02990813928647725;0,5969664840006714;14,526810510574663;18,70784630878628;9,155552842799157
12:23:54.446;0;Mov;1;14885;9,84;0;0;0;-0,3433454509300516;-0,20217903051755579;-0,08972441785943175;13,855403302102726;25,57451094088565;8,972441785943175
12:23:54.482;0;Wrist;1;61195;9,94;-0,7441145173688467;-6,011535996581927;-2,4022217951750235;-6,011535996581927;-0,7441145173688467;-2,4022217951750235;-14,831995605334635;-4,699850459303567;-17,792291024506362
12:23:54.483;0;Wrist;1;61196;9,94;0;-6,1766292115543076;-3,256398157826472;-6,1766292115543076;-0,4498184208292642;-3,256398157826472;-16,479995117038484;3,662221137119663;-18,433179723502302
12:23:54.483;0;Wrist;1;61197;9,94;0;-6,3070286034730065;-3,336552161854915;-6,3070286034730065;0,009570604757942918;-3,336552161854915;-19,043549913022247;13,977477340006715;-17,548142948698384
12:23:54.483;0;Wrist;1;61198;9,94;0,522794286648915;-6,479299390392773;-2,7431745830408643;-6,479299390392773;0,522794286648915;-2,7431745830408643;-23,13303018280587;23,438215277565845;-14,954069643238624
12:23:54.483;0;Wrist;1;61199;9,94;0,6101260414441358;-6,5235636272774435;-2,3603504001739557;-6,5235636272774435;0,6101260414441358;-2,3603504001739557;-25,63554795983764;30,945768608661155;-10,895107882930997
12:23:54.512;0;Wrist;1;61200;9,96;0,6304635880802332;-6,505618743705558;-1,8889981011764885;-6,505618743705558;0,6304635880802332;-1,8889981011764885;-25,45243690298166;35,950804162724694;-6,500442518387402
12:23:54.512;0;Wrist;1;61201;9,96;0,6950651927816095;-6,6300365077669605;-1,8088443355739006;-6,6300365077669605;0,6950651927816095;-1,8088443355739006;-23,194067201757868;40,406506546220285;-1,5564439832758568
12:23:54.513;0;Wrist;1;61202;9,96;-4,111771179845577;4,18235429319132;-1,5612048707541124;4,18235429319132;-4,111771179845577;-1,5612048707541124;-22,522659993285927;36,28650776696066;0,640888698995941
12:23:54.513;0;Wrist;1;61203;9,96;-5,759111205633717;21,60085413678396;3,5566759716330454;21,60085413678396;-5,759111205633717;3,5566759716330454;-20,020142216254158;-14,648884548478652;-13,58073671681875
12:23:54.513;0;Wrist;1;61204;9,96;-3,4238837378307445;17,477120654927212;-12,632002090517899;17,477120654927212;-3,4238837378307445;-12,632002090517899;-15,717032380138553;35,584582049012724;-59,84679708243049
12:23:54.541;0;Mov;1;14886;10,1;0;0;0;0,4091433573603015;-0,09690236979802469;-0,3218115727618488;15,045625171666616;23,37717825861385;9,491256447035127
12:23:54.541;0;Mov;1;14887;10,1;0;0;0;0,473744932258446;0,07895748622613834;0,4701559674653615;13,214514603106783;20,99673451948607;11,017181920834986
12:23:54.541;0;Mov;1;14888;10,1;0;0;0;-0,01794488357188635;-0,15193334459498123;0,3313821952154607;11,017181920834986;27,863399151585437;11,871700186162908
12:23:54.541;0;Mov;1;14889;10,1;0;0;0;-0,03349711525577372;-0,0957060457167272;-0,04306772280776963;10,773033845027008;33,05154576250496;12,695699942014832
12:23:54.542;0;Mov;1;14890;10,1;0;0;0;0,41632131674970246;0,03947874311306917;0,2273018585772271;10,803552354503006;34,54695272682882;13,245033112582782
12:23:54.569;0;Mov;1;14891;9,62;0;0;0,6161076693014313;0,33257852674756616;-0,06340525826765496;0,6161076693014313;13,611255226294748;37,72087771233253;12,970366527298808
12:23:54.569;0;Mov;1;14892;9,62;0;0;0;0,3265968988902707;-0,1435590685750908;0,49408247889454326;18,58577227088229;45,564134647663806;13,946958830530717
12:23:54.569;0;Mov;1;14893;9,62;0;0,6304635880802332;0,541935471949675;0,6304635880802332;-0,239265114291818;0,541935471949675;20,935697500534072;52,552873317667164;15,717032380138553
12:23:54.569;0;Mov;1;14894;9,62;0;1,1652211304437392;0;1,1652211304437392;-0,0717795342875454;0,28831446868228705;22,370067445905942;59,26694540238655;17,242957853938414
12:23:54.569;0;Mov;1;14895;9,62;0;0,9654347480887784;0,5550950889996032;0,9654347480887784;-0,18543046357615894;0,5550950889996032;26,459547715689567;65,03494369335002;16,541032135990477
12:23:54.590;0;Wrist;1;61205;9,69;1,3674001758629108;0,8864772842150639;-19,581457716605122;0,8864772842150639;1,3674001758629108;-19,581457716605122;-49,31791131321146;154,88143559068575;-116,1839655751213
12:23:54.590;0;Wrist;1;61206;9,69;7,700747894222846;-12,648750076296274;7,881393150883511;-12,648750076296274;7,700747894222846;7,881393150883511;-43,70250556962798;222,02215643787957;-115,97033600878933
12:23:54.590;0;Wrist;1;61207;9,69;3,8868619247260963;-7,7605641727958;16,425550096133303;-7,7605641727958;3,8868619247260963;16,425550096133303;-3,2349620044557024;191,07638782921842;-52,674947355571156
12:23:54.590;0;Wrist;1;61208;9,69;-3,800726531266213;-1,9284768927198095;6,118008877071444;-1,9284768927198095;-3,800726531266213;6,118008877071444;30,915250099185155;165,83758049256875;-19,440290536210213
12:23:54.590;0;Wrist;1;61209;9,69;-2,006237935651723;-2,26105533005768;6,990130600146489;-2,26105533005768;-2,006237935651723;6,990130600146489;16,693624683370466;166,44795068208867;-39,277321695608386
12:23:54.602;0;Wrist;1;61210;9,73;2,779064350184637;-5,285366660817286;9,299038476210821;-5,285366660817286;2,779064350184637;9,299038476210821;22,980437635425886;159,24558244575334;-41,688283944212166
12:23:54.602;0;Wrist;1;61211;9,73;2,3567613757744073;-4,624994754631183;7,420807805871761;-4,624994754631183;2,3567613757744073;7,420807805871761;42,72591326639607;131,4737388225959;-24,079103976561786
12:23:54.602;0;Wrist;1;61212;9,73;0;-2,36513560708945;5,7507372127445295;-2,36513560708945;0,2679769220461898;5,7507372127445295;51,698355052339245;104,95315408795435;-12,298959318826869
12:23:54.602;0;Wrist;1;61213;9,73;0,5503097628711814;-1,1879513401440474;4,000512615588855;-1,1879513401440474;0,5503097628711814;4,000512615588855;55,81835383159886;88,80886257515184;-9,857478560747094
12:23:54.602;0;Wrist;1;61214;9,73;5,395428327280496;-1,967955565050203;7,049946878719443;-1,967955565050203;5,395428327280496;7,049946878719443;41,50517288735618;85,78753013702811;-3,295999023407697
12:23:54.685;0;Mov;1;14896;10,07;0;0,7812005862414929;0,8565691449285867;0,7812005862414929;-0,3828241828669088;0,8565691449285867;35,15732291634877;73,76323740348522;16,724143192846462
12:23:54.685;0;Mov;1;14897;10,07;-0,6232856584940641;1,2908353154469436;1,074300410855434;1,2908353154469436;-0,6232856584940641;1,074300410855434;43,519394512771996;82,64412366100039;16,63258766441847
12:23:54.685;0;Mov;1;14898;10,07;0;0,6196966340945158;1,19632557145909;0,6196966340945158;-0,47135229899746695;1,19632557145909;52,980132450331126;94,39374980925932;16,602069154942473
12:23:54.685;0;Mov;1;14899;10,07;-0,6950651927816095;0,8792992950224311;2,152189846110416;0,8792992950224311;-0,6950651927816095;2,152189846110416;51,82042909024323;99,82604449598682;18,18903164769433
12:23:54.685;0;Mov;1;14900;10,07;-0,7620594009407331;1,4678915477080599;2,421363099688711;1,4678915477080599;-0,7620594009407331;2,421363099688711;50,263985106967375;114,65804010132145;20,020142216254158
12:23:54.687;0;Mov;1;14901;10,06;-0,6304635880802332;2,1677418877987;3,415509506515702;2,1677418877987;-0,6304635880802332;3,415509506515702;50,29450361644337;138,67610705893125;25,086214789269693
12:23:54.687;0;Mov;1;14902;10,06;-0,5000640769486069;2,185686771370586;5,256654465620899;2,185686771370586;-0,5000640769486069;5,256654465620899;44,587542344431895;178,86898403881955;33,6924344615009
12:23:54.687;0;Mov;1;14903;10,06;-1,362614849734489;1,4906216381954405;7,700747894222846;1,4906216381954405;-1,362614849734489;7,700747894222846;39,52146977141636;241,73711355937377;48,24976348155156
12:23:54.687;0;Mov;1;14904;10,06;-1,9835078451643422;1,616235823198645;7,0523392437513355;1,616235823198645;-1,9835078451643422;7,0523392437513355;52,49183629871517;310,4647968993194;62,34931485946226
12:23:54.687;0;Mov;1;14905;10,06;-1,7394574047441023;2,5218543523209327;7,609827055421613;2,5218543523209327;-1,7394574047441023;7,609827055421613;64,88235114597003;374,21796319467757;76,57094027527695
12:23:54.693;0;Wrist;1;61215;9,98;6,394360179448836;-2,6390943060090946;1,1723990600299081;-2,6390943060090946;6,394360179448836;1,1723990600299081;22,49214148380993;73,70220038453321;4,791405987731559
12:23:54.693;0;Wrist;1;61216;9,98;2,3232642120883815;-1,301602269432661;1,927280590990936;-1,301602269432661;2,3232642120883815;1,927280590990936;5,279702139347514;57,6494644001587;12,93984801782281
12:23:54.693;0;Wrist;1;61217;9,98;-1,2202520828882717;-1,5683828003402813;3,336552161854915;-1,5683828003402813;-1,2202520828882717;3,336552161854915;-4,303109836115604;46,021912289803765;12,634662923062837
12:23:54.693;0;Wrist;1;61218;9,98;0;-1,2752830353328044;2,1462082182531206;-1,2752830353328044;0,2596026609279153;2,1462082182531206;-5,279702139347514;32,593768120365;7,9958494827112645
12:23:54.693;0;Wrist;1;61219;9,98;1,3123692234183781;-0,651997436445204;0,8242683425778985;-0,651997436445204;1,3123692234183781;0,8242683425778985;-5,706961272011475;22,186956389049957;8,392590105899227
12:23:54.723;0;Wrist;1;61220;9,96;0;0;0,6328562511444441;-0,1866267951082644;-0,43665883358256785;0,6328562511444441;-7,843256935331278;16,63258766441847;8,728293710135198
12:23:54.723;0;Wrist;1;61221;9,96;-1,5695792212820825;0;0,9259560161519211;-0,2129459547000412;-1,5695792212820825;0,9259560161519211;-5,859553819391461;13,794366283150731;7,17184972685934
12:23:54.723;0;Wrist;1;61222;9,96;-0,8637470745147557;0;0;-0,13518479255520036;-0,8637470745147557;0,4881008510372478;-0,6714072084719382;11,261329996642964;6,469924008911405
12:23:54.723;0;Wrist;1;61223;9,96;0;0;0;-0,058619954491657;-0,2464430736812189;0,29190343347537157;3,4180730613116856;9,369182409131138;7,5685903500473035
12:23:54.723;0;Wrist;1;61224;9,96;-0,6603717273667105;0;0,9163854235015412;-0,27276224817461164;-0,6603717273667105;0,9163854235015412;7,17184972685934;7,72118289742729;8,6977752006592
12:23:54.747;0;Mov;1;14906;10,09;-1,8543046357615893;2,4237557031464583;6,947062784203619;2,4237557031464583;-1,8543046357615893;6,947062784203619;70,86397900326548;445,0514236884671;93,11197241126743
12:23:54.747;0;Mov;1;14907;10,09;-3,0925016022217475;3,370049087115085;8,316855563524278;3,370049087115085;-3,0925016022217475;8,316855563524278;71,41331217383343;497,39066743980226;106,60115359965819
12:23:54.747;0;Mov;1;14908;10,09;-2,302926725058748;3,80311913472396;7,28801557206946;3,80311913472396;-2,302926725058748;7,28801557206946;75,86901455732902;530,6253242591632;118,19818720053712
12:23:54.747;0;Mov;1;14909;10,09;-1,5049776165807063;3,5985473666341137;6,206537350840785;3,5985473666341137;-1,5049776165807063;6,206537350840785;72,48146000549333;553,1174657429731;126,86544389172033
12:23:54.747;0;Mov;1;14910;10,09;-2,166545705282754;2,948942533646657;3,9694082937864317;2,948942533646657;-2,166545705282754;3,9694082937864317;31,647694326609088;552,7512436292611;132,4503311258278
12:23:54.756;0;Wrist;1;61225;9,97;-0,7656483657338176;0;0,9104037956442458;-0,35770133990562153;-0,7656483657338176;0,9104037956442458;12,024292733542893;5,1576281014435255;8,972441785943175
12:23:54.756;0;Wrist;1;61226;9,97;0;0;0;-0,1890194432708594;-0,11125828112601856;0,3313821952154607;16,05273598437452;1,73955504013184;9,308145390179144
12:23:54.756;0;Wrist;1;61227;9,97;0;0;0;0,04904935066506508;0,3134373116435743;0,119632557145909;17,883846552934354;-0,4272591326639607;9,002960295419172
12:23:54.756;0;Wrist;1;61228;9,97;0;0;0;0,08613544561553926;0,2859218056180761;0,03708609495047418;16,51051362651448;0,030518509475997192;7,751701406903287
12:23:54.756;0;Wrist;1;61229;9,97;0;0;0;0,13757744071779535;0,18782311173875393;-0,1890194432708594;15,44236579485458;1,0071108127079074;6,714072084719382
12:23:54.835;0;Mov;1;14911;10,3;0,7620594009407331;-8,807349047822504;11,45960303048799;-8,807349047822504;0,7620594009407331;11,45960303048799;-58,076723532822655;462,35541856135745;139,43906979583116
12:23:54.835;0;Mov;1;14912;10,3;-3,2803246692556534;-9,360051652577289;32,23140278328806;-9,360051652577289;-3,2803246692556534;32,23140278328806;-78,82930997650075;241,2793359172338;145,26810510574663
12:23:54.835;0;Mov;1;14913;10,3;-10,406836527603993;5,335612048707541;32,288827173680836;5,335612048707541;-10,406836527603993;32,288827173680836;-67,90368358409376;121,58574175237281;119,75463118381299
12:23:54.835;0;Mov;1;14914;10,3;-13,188293481246376;4,949199079866939;25,40875919370098;4,949199079866939;-13,188293481246376;25,40875919370098;-41,44413586840419;65,126499221778;97,62871181371501
12:23:54.835;0;Mov;1;14915;10,3;-9,984533791619617;6,691049207281717;17,06797807245094;6,691049207281717;-9,984533791619617;17,06797807245094;-5,066072573015534;-9,857478560747094;67,23227637562181
12:23:54.837;0;Mov;1;14916;10,09;-7,570348502304148;8,35154938657796;9,052595789971617;8,35154938657796;-7,570348502304148;9,052595789971617;-14,801477095858639;-44,282357249671925;38,11761833552049
12:23:54.837;0;Mov;1;14917;10,09;-7,235377342295602;9,45097201452681;4,384533219397564;9,45097201452681;-7,235377342295602;4,384533219397564;-39,67406231879635;-64,60768456068605;13,58073671681875
12:23:54.837;0;Mov;1;14918;10,09;-7,293997199926755;9,66989940336314;3,2121341593676567;9,66989940336314;-7,293997199926755;3,2121341593676567;-53,04116946928312;-75,13657032990508;-5,706961272011475
12:23:54.838;0;Mov;1;14919;10,09;-7,054732085634938;9,519162762840663;3,9538560136722922;9,519162762840663;-7,054732085634938;3,9538560136722922;-49,31791131321146;-85,42130802331614;-22,309030426953946
12:23:54.838;0;Mov;1;14920;10,09;-6,405127014221625;9,28707522049623;5,1262550737022;9,28707522049623;-6,405127014221625;5,1262550737022;-36,9884334849086;-97,78130436109501;-35,43198950163274
12:23:54.843;0;Wrist;1;61230;10,08;0;0;-0,6890835649243141;0,3935911070493942;0,32420423582605973;-0,6890835649243141;14,1300698873867;2,4414807580797753;5,951109347819452
12:23:54.844;0;Wrist;1;61231;10,08;0;0,5299722162350841;-0,8398205630855738;0,5299722162350841;0,26438795725310527;-0,8398205630855738;11,322367015594958;6,19525742362743;5,523850215155492
12:23:54.844;0;Wrist;1;61232;10,08;0;0,6208929954298532;-1,1927366662724692;0,6208929954298532;0,08733176969683676;-1,1927366662724692;8,178960539567248;11,07821893978698;5,005035554063539
12:23:54.844;0;Wrist;1;61233;10,08;0;0,6807092740028077;-0,9726127372814112;0,6807092740028077;-0,0358897671437727;-0,9726127372814112;5,7374797814874725;16,2968840601825;5,096591082491531
12:23:54.844;0;Wrist;1;61234;10,08;0;0;0;0,3182226079687643;-0,3553087066446425;-0,2153386028626362;4,24207281716361;21,85125278481399;4,608294930875576
12:23:54.845;0;Wrist;1;61235;9,84;0;0;0;0,22969452164143803;-0,3888058107242042;-0,1184362330646115;3,1434064760277107;24,506363109225745;4,211554307687613
12:23:54.845;0;Wrist;1;61236;9,84;0;0;0;0,0717795342875454;-0,2799401777607807;-0,10408032918742562;2,7771843623157446;25,727103488265634;3,7842951750236518
12:23:54.845;0;Wrist;1;61237;9,84;0;0;0;0,3816278513348033;-0,11604358490201651;-0,48690451950514235;-0,5798516800439466;27,61925107577746;3,6317026276436657
12:23:54.845;0;Wrist;1;61238;9,84;0;0;0;0,38043154960592973;0,0023926511894857296;-0,473744932258446;-1,4954069643238623;29,419843134861292;2,075258644367809
12:23:54.845;0;Wrist;1;61239;9,84;0;0;0;0,05024567474636257;-0,020337535459885328;0,040675070919770656;-2,8992584002197335;31,28147221289712;0,7629627368999298
12:23:54.866;0;Mov;1;14921;9,94;-5,456441026795251;9,124375324259162;5,688528092287973;9,124375324259162;-5,456441026795251;5,688528092287973;-28,199102755821407;-113,46781823175756;-46,08294930875576
12:23:54.866;0;Mov;1;14922;9,94;-4,514932611316263;8,946122432630391;5,69690256202887;8,946122432630391;-4,514932611316263;5,69690256202887;-28,107547227393415;-131,87047944578387;-55,05539109469893
12:23:54.866;0;Mov;1;14923;9,94;-3,812689786980804;8,587224761192664;5,481563959166234;8,587224761192664;-3,812689786980804;5,481563959166234;-33,99761955626087;-151,46336252937405;-62,04412976470229
12:23:54.866;0;Mov;1;14924;9,94;-3,4490066702017272;7,975902775658437;5,29015186773278;7,975902775658437;-3,4490066702017272;5,29015186773278;-42,451246681112096;-171,20883816034424;-67,11020233771782
12:23:54.866;0;Mov;1;14925;9,94;-3,2946807668538467;7,219824823755608;5,017389351329081;7,219824823755608;-3,2946807668538467;5,017389351329081;-47,60887478255562;-189,67253639332256;-70,89449751274148
12:23:54.909;0;Wrist;1;61240;9,99;0;0;0;0,10168767357402264;-0,16628926337378308;-0,09092074194072924;-4,913480025635548;31,769768364513077;0,15259254737998595
12:23:54.909;0;Wrist;1;61241;9,99;0;0;0;0,1387737722499008;0,21892758255733666;-0,2942960965395825;-6,775109103671377;31,342509231849117;-0,061037018951994385
12:23:54.909;0;Wrist;1;61242;9,99;0;0;0;0,028711815205179753;0,20935697500534073;-0,26199529418889433;-10,101626636555071;30,365916928617207;-0,27466658528397475
12:23:54.909;0;Wrist;1;61243;9,99;0;0;0;0,20935697500534073;-0,21892758255733666;0,01674855762788686;-9,979552598651082;29,725028229621266;-1,281777397991882
12:23:54.910;0;Wrist;1;61244;9,99;0;0;0;-0,009570604757942918;-0,24046144582392345;0,35291604358043155;-5,890072328867458;30,33539841914121;-3,2654805139316996
12:23:54.926;0;Mov;1;14926;10,08;-3,0195258854182563;6,433839209418012;4,475454058198798;6,433839209418012;-3,0195258854182563;4,475454058198798;-48,18872646259957;-206,12201300088503;-73,58012634662923
12:23:54.926;0;Mov;1;14927;10,08;-2,6666098418378246;5,482760380108036;4,166802251503037;5,482760380108036;-2,6666098418378246;4,166802251503037;-46,113467818231754;-219,97741630298776;-75,19760734885708
12:23:54.926;0;Mov;1;14928;10,08;-2,2395214220862454;4,4802392651142915;3,8725060655537584;4,4802392651142915;-2,2395214220862454;3,8725060655537584;-43,12265388958403;-232,3679311502426;-75,93005157628102
12:23:54.926;0;Mov;1;14929;10,08;-1,822003893017365;3,5698356482894376;3,405938854258858;3,5698356482894376;-1,822003893017365;3,405938854258858;-43,214209418012025;-242,5305948057497;-75,80797753837703
12:23:54.926;0;Mov;1;14930;10,08;-1,6078615918836023;2,701303188039796;3,076949322107608;2,701303188039796;-1,6078615918836023;3,076949322107608;-45,625171666615806;-250,25177770317697;-75,13657032990508
12:23:54.955;0;Mov;1;14931;9,96;-1,5277078262810144;1,8279855208746605;2,9979919774468216;1,8279855208746605;-1,5277078262810144;2,9979919774468216;-48,00561540574358;-255,77562791833248;-73,9158299508652
12:23:54.955;0;Mov;1;14932;9,96;-1,4882290347376934;0,9690237128818628;3,1032686754203924;0,9690237128818628;-1,4882290347376934;3,1032686754203924;-50,11139255958739;-259,8651081881161;-72,8782006286813
12:23:54.955;0;Mov;1;14933;9,96;-1,4284127561647388;0;3,281521090197455;0,009570604757942918;-1,4284127561647388;3,281521090197455;-51,91198461867123;-262,9474776451918;-72,20679342020935
12:23:54.955;0;Mov;1;14934;9,96;-1,4654988250373853;-0,9211706900234993;3,533945881145665;-0,9211706900234993;-1,4654988250373853;3,533945881145665;-53,37687307351909;-264,44288460951566;-71,8100527970214
12:23:54.955;0;Mov;1;14935;9,96;-1,8232001947462386;-1,8495194288460952;3,6188848536637472;-1,8495194288460952;-1,8232001947462386;3,6188848536637472;-53,49894711142308;-265,14481032746363;-72,54249702444532
12:23:54.994;0;Wrist;1;61245;9,97;0;-0,5562913907284768;1,1281350615710928;-0,5562913907284768;0,16030763551648763;1,1281350615710928;-4,0284432508316295;29,66399121066927;-3,9979247413556322
12:23:54.994;0;Wrist;1;61246;9,97;0;0;0;-0,48690451950514235;0,24524674214911343;0,47254860072634053;-8,270516067995239;23,04147465437788;-3,326517532883694
12:23:54.994;0;Wrist;1;61247;9,97;0;0;0;0,05503097852236053;-0,0478530228583636;0,026319163317180778;-10,895107882930997;18,03643910031434;-2,807702871791742
12:23:54.994;0;Wrist;1;61248;9,97;0;0;0;-0,11245460520731605;-0,04904935066506508;0,32300790429395426;-9,88799707022309;18,005920590838343;-3,662221137119663
12:23:54.994;0;Wrist;1;61249;9,97;0;0;0;-0,2799401777607807;0,14954069643238624;0,37564622347750787;-8,880886257515183;17,242957853938414;-4,303109836115604
12:23:54.995;0;Wrist;1;61250;9,85;0;0;0;-0,08254646592083881;-0,08613544561553926;0,23208716980403302;-8,178960539567248;15,686513870662557;-4,394665364543596
12:23:54.995;0;Wrist;1;61251;9,85;0;0;0;-0,025122837373181287;-0,028711815205179753;0,15193334459498123;-7,019257179479355;14,984588152714622;-4,394665364543596
12:23:54.995;0;Wrist;1;61252;9,85;0;0;0;0,00598162785729545;-0,003588976900647469;0,1674855800042726;-6,714072084719382;15,10666219061861;-4,913480025635548
12:23:54.995;0;Wrist;1;61253;9,85;0;0;0;-0,06220893046095347;-0,07417218990094836;0,12202521275931195;-6,561479537339396;15,625476851710562;-4,791405987731559
12:23:54.995;0;Wrist;1;61254;9,85;0;0;0;-0,13518479255520036;0,03349711525577372;0,12202521275931195;-5,279702139347514;15,44236579485458;-4,66933194982757
12:23:55.016;0;Mov;1;14936;9,94;-2,2455030499435407;-2,605597142323069;3,5638540204321423;-2,605597142323069;-2,2455030499435407;3,5638540204321423;-52,2171697134312;-264,7785882137516;-74,61775566881313
12:23:55.016;0;Mov;1;14937;9,94;-2,6402904885250402;-3,38081616031373;3,8641315958128604;-3,38081616031373;-2,6402904885250402;3,8641315958128604;-49,958800012207405;-262,52021851252783;-78,55464339121677
12:23:55.017;0;Mov;1;14938;9,94;-2,90348211424604;-4,025635547959838;4,135697691274758;-4,025635547959838;-2,90348211424604;4,135697691274758;-48,18872646259957;-260,07873775444807;-84,17004913480025
12:23:55.017;0;Mov;1;14939;9,94;-3,076949322107608;-4,773339030121769;4,304379692220832;-4,773339030121769;-3,076949322107608;4,304379692220832;-48,28028199102756;-257,33207190160834;-90,73152867213965
12:23:55.017;0;Mov;1;14940;9,94;-3,1870114654225286;-5,260243728446302;3,992138622699667;-5,260243728446302;-3,1870114654225286;3,992138622699667;-48,615985595263524;-254,03607287820063;-98,17804498428296
12:23:55.045;0;Mov;1;14941;9,93;-3,061397280419324;-5,767485675374615;3,746891880550554;-5,767485675374615;-3,061397280419324;3,746891880550554;-49,806207464827416;-247,65770439771723;-105,5024872585223
12:23:55.045;0;Mov;1;14942;9,93;-2,8101689104129153;-6,360863254188666;3,937107551042207;-6,360863254188666;-2,8101689104129153;3,937107551042207;-51,60679952391125;-239,96704000976592;-111,66722617267372
12:23:55.045;0;Mov;1;14943;9,93;-2,5051058896908476;-7,1659901730399485;4,682418191320536;-7,1659901730399485;-2,5051058896908476;4,682418191320536;-53,86516922513504;-232,7951902829066;-116,09241004669332
12:23:55.045;0;Mov;1;14944;9,93;-2,2179877525406657;-8,1553516113773;5,437299722281564;-8,1553516113773;-2,2179877525406657;5,437299722281564;-56,58131656849879;-227,1797845393231;-118,99166844691305
12:23:55.045;0;Mov;1;14945;9,93;-1,8447341027176734;-9,027473334452345;5,682546464430677;-9,027473334452345;-1,8447341027176734;5,682546464430677;-57,771538438062684;-223,48704489272743;-120,51759392071291
12:23:55.077;0;Wrist;1;61255;10,05;0;0;0;-0,06699423051154745;-0,01794488357188635;0,0837427900021363;-4,547257911923582;14,007995849482711;-4,333628345591602
12:23:55.078;0;Wrist;1;61256;10,05;0;0;0;0,025122837373181287;-0,007177953801294938;0,028711815205179753;-4,0284432508316295;13,061922055726798;-3,967406231879635
12:23:55.078;0;Wrist;1;61257;10,05;0;0;0;-0,007177953801294938;-0,0239265114291818;0,16270028367908262;-4,058961760307627;13,183996093630787;-4,760887478255562
12:23:55.078;0;Wrist;1;61258;10,05;0;0;0;-0,10408032918742562;-0,05742363041035951;0,290707131746498;-2,9297769096957307;11,780144657734915;-4,577776421399578
12:23:55.078;0;Wrist;1;61259;10,05;0;0;0;0,0119632557145909;0,0239265114291818;0,0119632557145909;-0,8545182653279214;10,010071108127079;-3,295999023407697
12:23:55.112;0;Wrist;1;61260;9,95;0;0;0;0,038282419031771674;0,06699423051154745;0,021533861403884816;-0,15259254737998595;10,040589617603077;-3,5096285897396773
12:23:55.112;0;Wrist;1;61261;9,95;0;0;0;0,08135014183954131;0,14475540010719626;-0,003588976900647469;1,3122959074678793;10,65095980712302;-4,0284432508316295
12:23:55.112;0;Wrist;1;61262;9,95;0;0;0;0,06340525826765496;-0,031104465230476736;0,004785302378971459;3,326517532883694;11,780144657734915;-4,211554307687613
12:23:55.113;0;Wrist;1;61263;9,95;0;0;0;-0,031104465230476736;-0,07656483806354335;0,03947874311306917;3,8758507034516434;11,84118167668691;-3,9979247413556322
12:23:55.113;0;Wrist;1;61264;9,95;0;0;0;-0,04187139500106815;-0,14236275194460127;0,06101260637965598;3,936887722403638;10,742515335551012;-3,47911008026368
12:23:55.143;0;Mov;1;14946;10,11;-1,1412946190145574;-9,879256378368481;5,506686891537218;-9,879256378368481;-1,1412946190145574;5,506686891537218;-57,466353343302714;-220,6183050019837;-120,36500137333293
12:23:55.143;0;Mov;1;14947;10,11;0;-10,648494483779412;5,132236701559496;-10,648494483779412;-0,01794488357188635;5,132236701559496;-58,87020477919858;-217,44438001647998;-118,35077974791712
12:23:55.143;0;Mov;1;14948;10,11;0,9642384463599047;-11,268190939054536;4,639350852229377;-11,268190939054536;0,9642384463599047;4,639350852229377;-63,23435163426618;-213,72112186040835;-114,65804010132145
12:23:55.143;0;Mov;1;14949;10,11;1,567186498611408;-11,826875171666616;4,404870944853053;-11,826875171666616;1,567186498611408;4,404870944853053;-67,29331339457381;-208,96023438215278;-108,37122714926603
12:23:55.143;0;Mov;1;14950;10,11;2,0170050088503677;-12,41307470168157;4,379748012482071;-12,41307470168157;2,0170050088503677;4,379748012482071;-67,26279488509782;-204,13830988494522;-99,67345194860683
12:23:55.143;0;Wrist;1;61265;9,84;0;0;0;-0,11365092928861355;-0,0598162785729545;0,06699423051154745;4,516739402447585;9,765923032319101;-2,5025177770317697
12:23:55.143;0;Wrist;1;61266;9,84;0;0;0;0,0478530228583636;-0,20217903051755579;-0,0705832102062479;4,425183874019593;9,063997314371166;-2,166814172795801
12:23:55.143;0;Wrist;1;61267;9,84;0;0;0;0,03708609495047418;-0,0705832102062479;-0,0011963255947428648;3,7232581560716573;8,57570116275521;-1,5259254737998595
12:23:55.143;0;Wrist;1;61268;9,84;0;0;0;-0,03708609495047418;0,20935697500534073;0,0837427900021363;5,21866512039552;8,850367748039186;-1,1291848506118962
12:23:55.143;0;Wrist;1;61269;9,84;0;0;0;0,0945097216354297;0,00837427881394343;-0,11245460520731605;8,239997558519242;9,002960295419172;-1,281777397991882
12:23:55.166;0;Mov;1;14951;9,96;2,6271310502945036;-12,782738731040377;3,9945312261574144;-12,782738731040377;2,6271310502945036;3,9945312261574144;-63,63109225745415;-200,26245918149357;-89,35819574571978
12:23:55.166;0;Mov;1;14952;9,96;3,458577322458571;-13,056697668385876;3,0649860663930175;-13,056697668385876;3,458577322458571;3,0649860663930175;-60,51820429090243;-195,22690511795403;-77,36442152165289
12:23:55.166;0;Mov;1;14953;9,96;4,616620284890286;-13,376116786706138;1,702371335871456;-13,376116786706138;4,616620284890286;1,702371335871456;-61,00650044251839;-188,57387005218666;-62,318796349986265
12:23:55.166;0;Mov;1;14954;9,96;5,882333025605029;-14,078359134189887;0;-14,078359134189887;5,882333025605029;0,28352917235709707;-66,1946470534379;-180,18127994628742;-44,587542344431895
12:23:55.166;0;Mov;1;14955;9,96;6,557060552537614;-15,26750713370159;-1,1400983172856838;-15,26750713370159;6,557060552537614;-1,1400983172856838;-74,19049653614917;-169,80498672444838;-23,926511429181797
12:23:55.199;0;Mov;1;14956;9,97;6,512796315652944;-16,31788079470199;-2,769493697927793;-16,31788079470199;6,512796315652944;-2,769493697927793;-79,89745780816065;-157,17032380138554;-1,5259254737998595
12:23:55.199;0;Mov;1;14957;9,97;5,942149304177984;-16,92800683614612;-4,584319780571917;-16,92800683614612;5,942149304177984;-4,584319780571917;-80,93508713034456;-141,91106906338695;16,63258766441847
12:23:55.199;0;Mov;1;14958;9,97;5,385857913449507;-17,355096209601122;-6,09169000061037;-17,355096209601122;5,385857913449507;-6,09169000061037;-77,05923642689291;-122,98959318826869;27,253028962065493
12:23:55.199;0;Mov;1;14959;9,97;5,043708704641865;-17,761846903897215;-7,155223338267159;-17,761846903897215;5,043708704641865;-7,155223338267159;-68,88027588732567;-100,74159978026672;30,854213080233162
12:23:55.199;0;Mov;1;14960;9,97;4,913309312723166;-18,05614261299478;-7,630164780877102;-18,05614261299478;4,913309312723166;-7,630164780877102;-56,58131656849879;-77,36442152165289;29,633472701193273
12:23:55.209;0;Wrist;1;61270;9,99;0;0;0;0,10288399765532014;-0,013159581658590389;-0,08613544561553926;6,0121463667714465;8,362071596423231;-0,9765923032319102
12:23:55.210;0;Wrist;1;61271;9,99;0;0;0;-0,04306772280776963;0,22251656225203711;0,038282419031771674;3,69273964659566;8,056886501663259;-0,7629627368999298
12:23:55.210;0;Wrist;1;61272;9,99;0;0;0;0,025122837373181287;0,29668875960379343;-0,0945097216354297;3,2654805139316996;8,362071596423231;-1,0376293221839046
12:23:55.210;0;Wrist;1;61273;9,99;0;0;0;0,2990813928647725;0,0705832102062479;-0,07536851398224585;0,3967406231879635;7,904293954283273;-2,380443739127781
12:23:55.210;0;Wrist;1;61274;9,99;0;0;0;0,04426404688906713;0,32420423582605973;0,1076693014313181;-1,6785180211798456;8,02636799218726;-3,47911008026368
12:23:55.266;0;Wrist;1;61275;9,97;0;0;0;0,18782311173875393;0,27635121296769616;-0,15552232428968168;-1,5564439832758568;9,7964415417951;-4,394665364543596
12:23:55.266;0;Wrist;1;61276;9,97;0;0;0;0,1339884610230949;0,0358897671437727;0,05383465071565905;-5,21866512039552;10,254219183935056;-4,272591326639607
12:23:55.266;0;Wrist;1;61277;9,97;0;0;0;0,13518479255520036;0,24524674214911343;-0,04187139500106815;-5,127109591967528;13,611255226294748;-4,333628345591602
12:23:55.266;0;Wrist;1;61278;9,97;0;0;0;0,10886562551261558;0,1543260076591922;-0,1387737722499008;-4,516739402447585;16,17481002227851;-4,821924497207556
12:23:55.266;0;Wrist;1;61279;9,97;0;0;0;0,22132023071993165;0,23208716980403302;0,06579790643024995;-7,293923764763329;17,792291024506362;-5,279702139347514
12:23:55.286;0;Mov;1;14961;10,09;4,8714379177220986;-18,204487365337076;-7,774920270393994;-18,204487365337076;4,8714379177220986;-7,774920270393994;-42,451246681112096;-54,78072450941496;24,964140751365704
12:23:55.286;0;Mov;1;14962;10,09;4,849903771324809;-18,095620212408825;-8,026148640400402;-18,095620212408825;4,849903771324809;-8,026148640400402;-27,49717703787347;-33,20413830988495;18,06695760979034
12:23:55.286;0;Mov;1;14963;10,09;4,624994754631183;-17,709208197271646;-7,978295617542039;-17,709208197271646;4,624994754631183;-7,978295617542039;-11,169774468214973;-11,07821893978698;10,040589617603077
12:23:55.286;0;Mov;1;14964;10,09;4,270882290108951;-17,11224135563219;-7,1659901730399485;-17,11224135563219;4,270882290108951;-7,1659901730399485;6,317331461531419;11,108737449262978;1,6174810022278512
12:23:55.287;0;Mov;1;14965;10,09;4,01726155507065;-16,348984878078554;-5,844050416577654;-16,348984878078554;4,01726155507065;-5,844050416577654;23,224585711233864;31,128879665517136;-7,629627368999298
12:23:55.293;0;Wrist;1;61280;9,83;0;0;0;0,23806879766132846;0,13757744071779535;-0,06220893046095347;-9,949034089175084;18,37214270455031;-7,232886745811334
12:23:55.293;0;Wrist;1;61281;9,83;0;0;0;0,2775475444998016;0,10049134949272515;0,1866267951082644;-13,855403302102726;18,79940183721427;-8,362071596423231
12:23:55.293;0;Wrist;1;61282;9,83;0;0;0;0,1770561875562685;0,04306772280776963;0,2488357218438139;-14,67940305795465;21,51554918057802;-9,521774956511123
12:23:55.293;0;Wrist;1;61283;9,83;0;0;0;-0,0598162785729545;0,0011963255947428648;0,2584063293958098;-14,526810510574663;22,980437635425886;-11,07821893978698
12:23:55.293;0;Wrist;1;61284;9,83;0;0;0,8039307959418012;-0,11245460520731605;-0,04546037097036462;0,8039307959418012;-13,885921811578722;24,01806695760979;-11,017181920834986
12:23:55.316;0;Mov;1;14966;9,84;4,163212988677633;-15,326127468184454;-4,688399819177832;-15,326127468184454;4,163212988677633;-4,688399819177832;35,8592486342967;46,96798608355968;-18,67732779931028
12:23:55.316;0;Mov;1;14967;9,84;4,767357402264474;-14,318821146275216;-3,5614611785485395;-14,318821146275216;4,767357402264474;-3,5614611785485395;43,33628345591601;59,419537949766536;-30,091250343333233
12:23:55.316;0;Mov;1;14968;9,84;1,682033729628895;1,0479811767555773;-1,567186498611408;1,0479811767555773;1,682033729628895;-1,567186498611408;55,20798364207892;60,640278328806424;-42,847987304300055
12:23:55.316;0;Mov;1;14969;9,84;0,644819506859035;13,482589190343944;8,724802201910459;13,482589190343944;0,644819506859035;8,724802201910459;112,12500381481368;40,55909909360027;-47,761467329935606
12:23:55.316;0;Mov;1;14970;9,84;7,1899166844691305;15,748430204168828;-1,508566521767327;15,748430204168828;7,1899166844691305;-1,508566521767327;126,62129581591235;53,743095187231056;-0,8850367748039186
12:23:55.345;0;Mov;1;14971;9,84;6,959026039918211;7,016449476607563;-16,543986709189124;7,016449476607563;6,959026039918211;-16,543986709189124;133,33536790063172;125,46159245582446;58,38190862758263
12:23:55.345;0;Mov;1;14972;9,84;9,567015785699027;-5,533005767998291;-5,733988750114444;-5,533005767998291;9,567015785699027;-5,733988750114444;153,69121372112187;185,21683400982695;94,91256447035127
12:23:55.345;0;Mov;1;14973;9,84;3,672719504379406;-11,680923261207923;14,229096728415785;-11,680923261207923;3,672719504379406;14,229096728415785;83,16293832209234;211,46275215918453;62,776573992126224
12:23:55.345;0;Mov;1;14974;9,84;4,674044198431349;-5,9397564622943815;13,517283013397625;-5,9397564622943815;4,674044198431349;13,517283013397625;49,53154087954344;189,27579577013458;22,583697012237923
12:23:55.345;0;Mov;1;14975;9,84;2,8293099765007477;-0,7477034821619312;5,310489116336558;-0,7477034821619312;2,8293099765007477;5,310489116336558;47,05954161198767;170,59846797082432;29,084139530625325
12:23:55.353;0;Wrist;1;61285;9,83;0;0;1,0731041091265603;-0,1435590685750908;-0,04546037097036462;1,0731041091265603;-11,07821893978698;29,450361644337292;-9,33866389965514
12:23:55.353;0;Wrist;1;61286;9,83;0;0;0,937919271866512;0,3182226079687643;0,17346720786156805;0,937919271866512;-5,096591082491531;41,779839472640155;-8,056886501663259
12:23:55.353;0;Wrist;1;61287;9,83;0;0,6041444135868405;0;0,6041444135868405;-0,2990813928647725;0,20935697500534073;1,1902218695638904;52,64442884609516;-10,254219183935056
12:23:55.353;0;Wrist;1;61288;9,83;0;0,8948515155301066;0;0,8948515155301066;-0,34573808419103064;0,26199529418889433;0,9155552842799157;54,506057924130985;-10,284737693411055
12:23:55.353;0;Wrist;1;61289;9,83;0;0,7333475633831293;1,0527665028839992;0,7333475633831293;-0,03230079117447623;1,0527665028839992;1,4954069643238623;61,250648518326365;-10,040589617603077
12:23:55.436;0;Mov;1;14976;10,08;-0,9498825275811029;-3,70980569246498;4,505362197485275;-3,70980569246498;-0,9498825275811029;4,505362197485275;36,68324839014863;173,31461531418805;28,351695303201392
12:23:55.436;0;Mov;1;14977;10,08;-1,9918820764793848;-5,1705193105868705;7,2449477561265905;-5,1705193105868705;-1,9918820764793848;7,2449477561265905;24,35377056184576;163,27402569658497;11,108737449262978
12:23:55.436;0;Mov;1;14978;10,08;-4,293612380596332;-3,879683875927;12,737278550065614;-3,879683875927;-4,293612380596332;12,737278550065614;31,647694326609088;146,7940305795465;-4,394665364543596
12:23:55.436;0;Mov;1;14979;10,08;-3,2372570917386394;-5,559325121311075;6,1012604144413585;-5,559325121311075;-3,2372570917386394;6,1012604144413585;57,37479781487472;128,81862849818415;-8,819849238563188
12:23:55.436;0;Mov;1;14980;10,08;0,8374279000213629;-1,7885067293313395;3,0195258854182563;-1,7885067293313395;0,8374279000213629;3,0195258854182563;52,52235480819117;104,58693197424238;-11,139255958738975
12:23:55.443;0;Wrist;1;61290;10,08;0;1,3578295236060671;0;1,3578295236060671;-0,23328348643452254;0,22371287888252664;6,8666646320993685;72,20679342020935;-11,902218695638904
12:23:55.444;0;Wrist;1;61291;10,08;-0,5215979849200415;1,5588122672963654;0,7572740748123111;1,5588122672963654;-0,5215979849200415;0,7572740748123111;3,3875545518356884;79,68382824182866;-12,787255470442824
12:23:55.444;0;Wrist;1;61292;10,08;0;1,3362957348475601;1,4176458021790215;1,3362957348475601;0,09929502541142765;1,4176458021790215;3,5706656086916717;96,25537888729515;-15,991698965422529
12:23:55.444;0;Wrist;1;61293;10,08;-0,6591754256378368;0,9594531202314829;1,9847041468932158;0,9594531202314829;-0,6591754256378368;1,9847041468932158;16,418958098086488;117,34366893520921;-24,53688161870174
12:23:55.444;0;Wrist;1;61294;10,08;-1,0802820387127292;4,1572313608203375;3,520786204489273;4,1572313608203375;-1,0802820387127292;3,520786204489273;34,24176763206885;144,6272164067507;-29,99969481490524
12:23:55.444;0;Wrist;1;61295;9,84;-0,9666311094241157;6,0737451170384835;5,073616843928343;6,0737451170384835;-0,9666311094241157;5,073616843928343;57,5579088717307;198,52290414136175;-32,837916196172976
12:23:55.445;0;Wrist;1;61296;9,84;-0,6388378790017396;3,059004438535722;4,572356524857326;3,059004438535722;-0,6388378790017396;4,572356524857326;81,69804986724448;263,2831812494278;-38,27021088290048
12:23:55.445;0;Wrist;1;61297;9,84;-1,4140568969924008;4,300790429395429;6,882461298715171;4,300790429395429;-1,4140568969924008;6,882461298715171;107,66930143131809;319,4982757042146;-47,70043031098361
12:23:55.445;0;Wrist;1;61298;9,84;-1,0671224812692648;3,4896816442609944;7,054732085634938;3,4896816442609944;-1,0671224812692648;7,054732085634938;143,5895870845668;393,6277352214118;-61,342204046754354
12:23:55.445;0;Wrist;1;61299;9,84;-0,710617413289285;5,263832514419995;7,987866031373028;5,263832514419995;-0,710617413289285;7,987866031373028;195,41001617481;464,1560106204413;-82,91879024628437
12:23:55.466;0;Mov;1;14981;9,96;4,8271736808374275;-1,1030122484130376;3,804315317239906;-1,1030122484130376;4,8271736808374275;3,804315317239906;35,584582049012724;95,82811975463119;-10,010071108127079
12:23:55.466;0;Mov;1;14982;9,96;0;-0,727365935525834;0,8481948540070803;-0,727365935525834;-0,1292031646979049;0,8481948540070803;25,696584978789637;87,83227027191992;-3,051850947599719
12:23:55.466;0;Mov;1;14983;9,96;-2,5996155144657735;-1,775347171887875;1,477462080751976;-1,775347171887875;-2,5996155144657735;1,477462080751976;31,128879665517136;80,05005035554063;-2,4414807580797753
12:23:55.466;0;Mov;1;14984;9,96;1,4176458021790215;-1,3518478957487716;2,77667174672689;-1,3518478957487716;1,4176458021790215;2,77667174672689;32,837916196172976;68,4530167546617;2,380443739127781
12:23:55.466;0;Mov;1;14985;9,96;2,2012390514847255;-0,5562913907284768;1,5109592444380016;-0,5562913907284768;2,2012390514847255;1,5109592444380016;21,17984557634205;59,26694540238655;7,38547929319132
12:23:55.497;0;Mov;1;14986;9,96;0;0;0;0,04306772280776963;-0,2799401777607807;0,03708609495047418;16,08325449385052;53,04116946928312;6,469924008911405
12:23:55.497;0;Mov;1;14987;9,96;0,8218756795136876;0;0;0,24046144582392345;0,8218756795136876;0,2871181371501816;15,503402813806574;49,86724448377941;5,706961272011475
12:23:55.497;0;Mov;1;14988;9,96;1,1329203876995149;0;0;0,2512283700064089;1,1329203876995149;0,20217903051755579;13,336588641010772;47,36472670674764;4,547257911923582
12:23:55.497;0;Mov;1;14989;9,96;0;0;0;0,05503097852236053;0,12441786092190694;-0,13997008888039034;13,092440565202795;45,86931974242378;2,0142216254158147
12:23:55.497;0;Mov;1;14990;9,96;0;0;0;0,1914120914334544;0,3935911070493942;0,20217903051755579;12,512588885158848;44,92324594866787;0,3357036042359691
12:23:55.504;0;Wrist;1;61300;9,96;-0,7142063780823694;5,9397564622943815;7,238966128269295;5,9397564622943815;-0,7142063780823694;7,238966128269295;234,44318979461042;527,0241401409955;-113,65092928861354
12:23:55.504;0;Wrist;1;61301;9,96;-1,1879513401440474;5,957701345866268;5,010211779381695;5,957701345866268;-1,1879513401440474;5,010211779381695;280,4651020844142;572,1610156559954;-135,28855250709555
12:23:55.504;0;Wrist;1;61302;9,96;0;6,840589903714102;6,324973487044892;6,840589903714102;0,3050630207220679;6,324973487044892;329,3862727744377;605,2430799279763;-167,05832087160863
12:23:55.504;0;Wrist;1;61303;9,96;-0,5527024259353923;7,5811153370769375;2,2849818414868617;7,5811153370769375;-0,5527024259353923;2,2849818414868617;342,3566393017365;626,5449995422224;-208,34986419263282
12:23:55.504;0;Wrist;1;61304;9,96;4,709933965575122;-7,668446913052766;22,603375728629413;-7,668446913052766;4,709933965575122;22,603375728629413;288,9797662282174;535,7829523606067;-235,48081911679432
12:23:55.556;0;Mov;1;14991;9,96;0;0;0;0,0346934430624752;0,48690451950514235;0,22371287888252664;8,789330729087192;43,54991302224799;-0,36622211371196634
12:23:55.556;0;Mov;1;14992;9,96;0;0;0;-0,15552232428968168;0,1292031646979049;0,23208716980403302;5,3102206488235115;41,19998779259621;-1,4648884548478653
12:23:55.556;0;Mov;1;14993;9,96;0;0;0;-0,3816278513348033;-0,10288399765532014;0,34095278786584066;3,204443494979705;38,758507034516434;-1,403851435895871
12:23:55.556;0;Mov;1;14994;9,96;0;0;0;-0,3182226079687643;-0,25720999786370435;0,29668875960379343;3,1434064760277107;36,71376689962462;-0,061037018951994385
