Frecuencia (Hz);100
time;timespan;canal;id;sample;gap;accX;accY;accZ;rawAccX;rawAccY;rawAccZ;rawGirX;rawGirY;rawGirZ
12:13:15.496;0;Wrist;1;60220;12,61;0;1,2585345727027193;0;1,2585345727027193;-0,10527665326872311;0,1507370279644917;-6,95822016052736;6,836146122623371;-6,103701895199438
12:13:15.496;0;Wrist;1;60221;12,61;0;1,2190557811593983;0;1,2190557811593983;-0,11245460520731605;0,18782311173875393;-7,5685903500473035;8,48414563432722;-6,836146122623371
12:13:15.496;0;Wrist;1;60222;12,61;0;1,1089938762703329;0;1,1089938762703329;-0,12681051653530992;0,2129459547000412;-7,965330973235267;9,399700918607135;-7,4159978026673175
12:13:15.496;0;Wrist;1;60223;12,61;0;1,116171805856502;0;1,116171805856502;-0,17107455969897306;0,236872466129223;-8,209479049043244;9,735404522843105;-7,965330973235267
12:13:15.496;0;Wrist;1;60224;12,61;0;1,0336253175832393;0;1,0336253175832393;-0,1890194432708594;0,30745568378627885;-8,392590105899227;9,7964415417951;-8,270516067995239
12:13:15.497;0;Mov;1;13901;12,77;0;0;0;-0,40435806103511157;-0,3098483170472579;0,007177953801294938;-3,5706656086916717;-6,256294442579424;-2,8687398907437363
12:13:15.497;0;Mov;1;13902;12,77;0;0;0;-0,30745568378627885;-0,3469344157231361;-0,020337535459885328;-3,0823694570757163;-8,178960539567248;-2,7771843623157446
12:13:15.497;0;Mov;1;13903;12,77;0;0;0;-0,23089083827192755;-0,38043154960592973;-0,01794488357188635;-2,197332682271798;-9,704886013367107;-2,5940733054597613
12:13:15.497;0;Mov;1;13904;12,77;0;0;0;-0,17346720786156805;-0,3433454509300516;-0,03230079117447623;-1,2207403790398876;-10,956144901882992;-2,3499252296517836
12:13:15.497;0;Mov;1;13905;12,77;0;0;0;-0,17466353939367352;-0,25362103307061984;-0,05024567474636257;-0,4882961516159551;-12,146366771446882;-2,3194067201757864
12:13:15.499;0;Mov;1;13906;11,62;0;0;0;-0,17107455969897306;-0,1985900508228553;-0,06579790643024995;0,45777764213995786;-13,458662678914761;-2,9602954191717274
12:13:15.499;0;Mov;1;13907;11,62;0;0;0;-0,16030763551648763;-0,25720999786370435;-0,0598162785729545;1,281777397991882;-14,831995605334635;-3,814813684499649
12:13:15.499;0;Mov;1;13908;11,62;0;0;0;-0,17346720786156805;-0,3361674915406507;-0,08254646592083881;2,1057771538438064;-15,961180455946531;-4,333628345591602
12:13:15.499;0;Mov;1;13909;11,62;0;0;0;-0,04306772280776963;-0,32300790429395426;-0,16987822816686757;3,3875545518356884;-16,602069154942473;-3,7537766655476545
12:13:15.499;0;Mov;1;13910;11,62;0;0;0;0,17825251908837397;-0,3265968988902707;-0,004785302378971459;4,974517044587542;-15,930661946470535;-2,9908139286477247
12:13:15.500;0;Wrist;1;60225;11,54;0;1,001324574839015;0;1,001324574839015;-0,2476394052133244;0,31582994490455335;-8,239997558519242;9,24710837122715;-8,606219672231209
12:13:15.500;0;Wrist;1;60226;11,54;0;1,0348216193121127;0;1,0348216193121127;-0,26079899246002075;0,29190343347537157;-7,751701406903287;8,6977752006592;-8,453627124851222
12:13:15.500;0;Wrist;1;60227;11,54;0;1,0096988061540575;0;1,0096988061540575;-0,2476394052133244;0,3337748284764397;-7,477034821619312;8,331553086947233;-8,209479049043244
12:13:15.500;0;Wrist;1;60228;11,54;0;0,9929502243110446;0;0,9929502243110446;-0,2895108002143925;0,33975645633373514;-7,110812707907346;7,660145878475295;-7,965330973235267
12:13:15.500;0;Wrist;1;60229;11,54;0;1,0240546653263956;0;1,0240546653263956;-0,297885061332667;0,3469344157231361;-6,530961027863399;7,019257179479355;-7,5685903500473035
12:13:15.516;0;Mov;1;13911;10,93;0;0;0;-0,04426404688906713;-0,2560136663315989;-0,009570604757942918;5,981627857295449;-14,1300698873867;-2,9297769096957307
12:13:15.516;0;Mov;1;13912;10,93;0;0;0;-0,10288399765532014;0,06460158234895245;-0,025122837373181287;6,073183385723441;-13,336588641010772;-3,173924985503708
12:13:15.516;0;Mov;1;13913;10,93;0;0;0;-0,3194189395008698;0,42828457246429336;0,04306772280776963;3,9063692129276406;-13,428144169438765;-4,119998779259621
12:13:15.516;0;Mov;1;13914;10,93;0;0;0;-0,32420423582605973;0,04306772280776963;0,0478530228583636;0,9765923032319102;-14,587847529526657;-6,225775933103427
12:13:15.516;0;Mov;1;13915;10,93;0;0;0;0,0011963255947428648;-0,27635121296769616;0,003588976900647469;-0,9460737937559129;-15,259254737998596;-7,354960783715323
12:13:15.545;0;Mov;1;13916;10,56;0;0;0;-0,16030763551648763;-0,42349924633587144;-0,031104465230476736;-2,0142216254158147;-14,465773491622668;-6,836146122623371
12:13:15.545;0;Mov;1;13917;10,56;0;0;0;-0,0717795342875454;-0,22969452164143803;-0,14236275194460127;-2,3194067201757864;-14,435254982146672;-5,890072328867458
12:13:15.545;0;Mov;1;13918;10,56;0;0;0;0,13039949623001038;-0,08613544561553926;-0,1184362330646115;-2,8687398907437363;-13,58073671681875;-5,1576281014435255
12:13:15.545;0;Mov;1;13919;10,56;0;0;0;-0,1818414838814585;-0,06101260637965598;-0,08493911408343378;-4,119998779259621;-11,810663167210913;-4,699850459303567
12:13:15.546;0;Mov;1;13920;10,56;0;0;0;-0,41632131674970246;0,0717795342875454;-0,03230079117447623;-6,042664876247444;-12,207403790398876;-5,4322946867275
12:13:15.548;0;Mov;1;13921;9,83;0;0;0;-0,3864131774632252;0,13279214439260537;-0,06579790643024995;-7,660145878475295;-15,076143681142613;-7,019257179479355
12:13:15.548;0;Mov;1;13922;9,83;0;0;0;-0,2895108002143925;0,013159581658590389;-0,1531296761270867;-9,063997314371166;-18,005920590838343;-9,12503433332316
12:13:15.548;0;Mov;1;13923;9,83;0;0;0;-0,04187139500106815;-0,26917325357829525;-0,1770561875562685;-9,918515579699088;-20,53895687734611;-10,498367259743034
12:13:15.548;0;Mov;1;13924;9,83;0;0;0;0,20816065837485123;-0,47254860072634053;0,003588976900647469;-9,88799707022309;-19,714957121494187;-10,040589617603077
12:13:15.548;0;Mov;1;13925;9,83;-0,6101260414441358;0;0;0,36846829389133884;-0,6101260414441358;-0,0957060457167272;-9,33866389965514;-15,930661946470535;-8,331553086947233
12:13:15.555;0;Wrist;1;60230;11,49;0;1,0396069454405348;0;1,0396069454405348;-0,25003203847430344;0,4055543627639851;-5,706961272011475;6,897183141575366;-7,232886745811334
12:13:15.555;0;Wrist;1;60231;11,49;0;1,0994232240134891;0;1,0994232240134891;-0,2942960965395825;0,44503312450407423;-4,760887478255562;6,775109103671377;-7,049775688955352
12:13:15.555;0;Wrist;1;60232;11,49;0;1,3709890810495315;0;1,3709890810495315;-0,33257852674756616;0,354112375112537;-3,967406231879635;6,19525742362743;-7,38547929319132
12:13:15.555;0;Wrist;1;60233;11,49;-0,5335612406346324;1,4798548034226509;0;1,4798548034226509;-0,5335612406346324;0,19260842296555986;-3,6317026276436657;6,40888698995941;-8,453627124851222
12:13:15.555;0;Wrist;1;60234;11,49;0;0,9773980038033693;0;0,9773980038033693;-0,4246955778679769;0,34095278786584066;-3,295999023407697;5,920590838343455;-8,331553086947233
12:13:15.556;0;Wrist;1;60235;10,64;0;1,2238411072878201;0;1,2238411072878201;-0,415124985217597;0,2799401777607807;-2,5025177770317697;5,798516800439467;-6,103701895199438
12:13:15.556;0;Wrist;1;60236;10,64;0;1,5600085690252388;0;1,5600085690252388;-0,14834437980189671;0,19739371929074984;-2,5940733054597613;7,446516312143315;-4,974517044587542
12:13:15.557;0;Wrist;1;60237;10,64;0;1,4367869874797814;0;1,4367869874797814;0,0837427900021363;0,2990813928647725;-4,150517288735618;10,864589373455;-5,920590838343455
12:13:15.557;0;Wrist;1;60238;10,64;0;1,0443922715689566;0;1,0443922715689566;0,16389660030957212;0,2739585499034852;-5,981627857295449;13,672292245246743;-8,453627124851222
12:13:15.557;0;Wrist;1;60239;10,64;0;0,5754326356357006;0;0,5754326356357006;0,11125828112601856;0,30745568378627885;-8,57570116275521;13,458662678914761;-11,322367015594958
12:13:15.558;0;Wrist;1;60240;9,9;0;0;0,5335612406346324;0,08733176969683676;-0,07656483806354335;0,5335612406346324;-9,552293465987121;11,291848506118962;-12,237922299874874
12:13:15.558;0;Wrist;1;60241;9,9;0;0;0,5180089605204932;-0,22132023071993165;-0,17585985602416304;0,5180089605204932;-8,14844203009125;6,988738670003357;-10,406811731315043
12:13:15.558;0;Wrist;1;60242;9,9;0;0;0,6113224027794733;-0,17585985602416304;-0,30745568378627885;0,6113224027794733;-6,805627613147374;1,1291848506118962;-6,683553575243385
12:13:15.558;0;Wrist;1;60243;9,9;0;0;0,6496047733809931;0,0837427900021363;-0,2859218056180761;0,6496047733809931;-3,662221137119663;-3,173924985503708;-1,8921475875118259
12:13:15.558;0;Wrist;1;60244;9,9;0;0;0,6460158085879085;0,20935697500534073;-0,1435590685750908;0,6460158085879085;-1,0376293221839046;-5,951109347819452;2,1057771538438064
12:13:15.619;0;Wrist;1;60245;10,04;0;0;0,5873958913502915;0,4773339268547624;-0,04306772280776963;0,5873958913502915;0,36622211371196634;-8,6977752006592;4,760887478255562
12:13:15.619;0;Wrist;1;60246;10,04;0;0,8003418311487167;0,5682546464430677;0,8003418311487167;0,08015381775824382;0,5682546464430677;1,2207403790398876;-9,857478560747094;5,920590838343455
12:13:15.619;0;Wrist;1;60247;10,04;0;1,1030122484130376;0;1,1030122484130376;0,17107455969897306;0,4510147523613697;0,3357036042359691;-9,155552842799157;5,493331705679495
12:13:15.619;0;Wrist;1;60248;10,04;0;1,2932279189046907;0;1,2932279189046907;0,1387737722499008;0,412732322153386;-1,1291848506118962;-7,477034821619312;3,7537766655476545
12:13:15.619;0;Wrist;1;60249;10,04;0;1,2190557811593983;0;1,2190557811593983;-0,21653493439474167;0,32300790429395426;-2,2583697012237924;-5,890072328867458;1,2512588885158848
12:13:15.794;0;Wrist;1;60250;11,64;0;1,2633197796182134;0;1,2633197796182134;-0,3923948053205206;0,4246955778679769;-2,9602954191717274;-5,3102206488235115;0,9155552842799157
12:13:15.794;0;Wrist;1;60251;11,64;-0,5299722162350841;1,3123692234183781;0;1,3123692234183781;-0,5299722162350841;0,363682967762917;-1,4343699453718681;-3,7842951750236518;1,8616290780358287
12:13:15.794;0;Wrist;1;60252;11,64;-0,527579612777337;1,2417859908597064;0;1,2417859908597064;-0,527579612777337;0,3062593522541734;0,7629627368999298;-2,3499252296517836;2,5940733054597613
12:13:15.794;0;Wrist;1;60253;11,64;-0,6065370766510514;1,1460799451429793;0;1,1460799451429793;-0,6065370766510514;0,3050630207220679;3,1434064760277107;-1,6479995117038484;3,173924985503708
12:13:15.797;0;Wrist;1;60254;11,64;-0,6974577962393567;0,9833796316606647;0;0,9833796316606647;-0,6974577962393567;0,3349711600085452;6,164738914151433;-1,8616290780358287;4,333628345591602
12:13:15.799;0;Wrist;1;60255;10,99;-0,7142063780823694;0,9127963991019928;0;0,9127963991019928;-0,7142063780823694;0,3852168459311197;9,24710837122715;-2,4414807580797753;6,653035065767388
12:13:15.800;0;Wrist;1;60256;10,99;-0,5634693799211097;0,9271523178807947;0;0,9271523178807947;-0,5634693799211097;0,3828241828669088;12,054811243018891;-2,9602954191717274;9,369182409131138
12:13:15.800;0;Wrist;1;60257;10,99;0;0,8936552138012329;0;0,8936552138012329;-0,2859218056180761;0,3265968988902707;13,58073671681875;-3,204443494979705;11,780144657734915
12:13:15.800;0;Wrist;1;60258;10,99;0;0,9582568185026094;0;0,9582568185026094;0,038282419031771674;0,26917325357829525;13,58073671681875;-3,5401470992156745;12,604144413586841
12:13:15.800;0;Wrist;1;60259;10,99;0;1,0252510862681967;0;1,0252510862681967;0,24165777735602892;0,23208716980403302;12,085329752494888;-3,9063692129276406;11,597033600878934
12:13:15.802;0;Wrist;1;60260;10,41;0;1,0132878305536057;0;1,0132878305536057;0,3947874385814997;0,20457167868015075;9,186071352275155;-4,119998779259621;9,460737937559129
12:13:15.802;0;Wrist;1;60261;10,41;0;0,9678274111529893;0;0,9678274111529893;0,35650503817674795;0,1985900508228553;6,164738914151433;-4,303109836115604;6,805627613147374
12:13:15.802;0;Wrist;1;60262;10,41;0;0,9654347480887784;0;0,9654347480887784;0,17107455969897306;0,20576799531064027;2,9602954191717274;-4,577776421399578;4,333628345591602
12:13:15.802;0;Wrist;1;60263;10,41;0;0,930741342280343;0;0,930741342280343;-0,06340525826765496;0,20935697500534073;0,8850367748039186;-5,21866512039552;2,71614734336375
12:13:15.802;0;Wrist;1;60264;10,41;0;0,8948515155301066;0;0,8948515155301066;-0,22132023071993165;0,26917325357829525;-0,09155552842799158;-6,073183385723441;2,563554795983764
12:13:15.804;0;Wrist;1;60265;9,88;0;0,957060457167272;0;0,957060457167272;-0,25720999786370435;0,2596026609279153;-0,4882961516159551;-6,469924008911405;3,4180730613116856
12:13:15.804;0;Wrist;1;60266;9,88;0;1,0396069454405348;0;1,0396069454405348;-0,1770561875562685;0,236872466129223;-0,4882961516159551;-6,500442518387402;4,303109836115604
12:13:15.804;0;Wrist;1;60267;9,88;0;1,074300410855434;0;1,074300410855434;-0,12681051653530992;0,30386668918996246;-1,0681478316599018;-6,19525742362743;4,364146855067599
12:13:15.804;0;Wrist;1;60268;9,88;0;1,0180730374691;0;1,0180730374691;-0,08613544561553926;0,37564622347750787;-1,1291848506118962;-5,401776177251503;3,8758507034516434
12:13:15.804;0;Wrist;1;60269;9,88;0;0,8063234590060121;0;0,8063234590060121;-0,0717795342875454;0,4773339268547624;-1,1902218695638904;-5,127109591967528;3,5706656086916717
12:13:15.830;0;Mov;1;13926;12,94;-0,8769066319582202;0,7632557026696066;0;0,7632557026696066;-0,8769066319582202;-0,3864131774632252;-6,683553575243385;-10,681478316599017;-5,76799829096347
12:13:15.830;0;Mov;1;13927;12,94;-1,08387094389935;0,6926725297173986;-0,5395428684919279;0,6926725297173986;-1,08387094389935;-0,5395428684919279;-2,8992584002197335;-3,3875545518356884;-1,9531846064638203
12:13:15.830;0;Mov;1;13928;12,94;-0,7907712384983367;0;0;0,4761375953226569;-0,7907712384983367;-0,49049348429822687;1,3733329264198737;2,8992584002197335;1,9837031159398175
12:13:15.830;0;Mov;1;13929;12,94;-0,5060457048059023;0;0;0,3194189395008698;-0,5060457048059023;-0,34454178246215705;4,058961760307627;7,599108859523301;5,035554063539537
12:13:15.830;0;Mov;1;13930;12,94;0;0;0;-0,17346720786156805;-0,358897671437727;-0,0346934430624752;5,035554063539537;11,047700430310984;6,775109103671377
12:13:15.831;0;Mov;1;13931;12,14;0;0;0;-0,32779320061914424;-0,14714804826979125;0,0119632557145909;5,1576281014435255;11,20029297769097;6,836146122623371
12:13:15.831;0;Mov;1;13932;12,14;0;0;0;-0,2560136663315989;-0,12082888867801446;0,04904935066506508;4,638813440351573;10,254219183935056;5,76799829096347
12:13:15.831;0;Mov;1;13933;12,14;0;0;0;-0,25003203847430344;-0,2799401777607807;-0,0119632557145909;3,936887722403638;9,765923032319101;4,943998535111545
12:13:15.831;0;Mov;1;13934;12,14;0;0;0;-0,09929502541142765;-0,2775475444998016;-0,04546037097036462;3,845332193975646;9,460737937559129;4,577776421399578
12:13:15.831;0;Mov;1;13935;12,14;0;0;0;-0,16868191153637807;-0,20217903051755579;-0,06819056204365291;3,9063692129276406;9,735404522843105;4,516739402447585
12:13:15.832;0;Mov;1;13936;11,44;0;0;0;-0,13518479255520036;-0,17585985602416304;-0,06460158234895245;3,4180730613116856;9,582811975463118;4,516739402447585
12:13:15.832;0;Mov;1;13937;11,44;0;0;0;-0,1315958128604999;-0,16389660030957212;-0,07776116214484084;2,7466658528397474;9,491256447035127;4,211554307687613
12:13:15.832;0;Mov;1;13938;11,44;0;0;0;-0,1387737722499008;-0,15552232428968168;-0,1064729773500206;2,3194067201757864;9,460737937559129;4,089480269783624
12:13:15.832;0;Mov;1;13939;11,44;0;0;0;-0,12441786092190694;-0,11604358490201651;-0,0705832102062479;1,922666096987823;9,12503433332316;4,058961760307627
12:13:15.832;0;Mov;1;13940;11,44;0;0;0;-0,24285409398651844;-0,08733176969683676;-0,03708609495047418;1,4343699453718681;8,819849238563188;3,662221137119663
12:13:15.846;0;Mov;1;13941;10,96;0;0;0;-0,20935697500534073;-0,10408032918742562;0,0119632557145909;1,0681478316599018;7,93481246375927;3,0823694570757163
12:13:15.846;0;Mov;1;13942;10,96;0;0;0;-0,37564622347750787;-0,08135014183954131;0,08015381775824382;0,7629627368999298;7,141331217383343;2,533036286507767
12:13:15.846;0;Mov;1;13943;10,96;0;0;0;-0,4881008510372478;-0,04187139500106815;0,07536851398224585;0,24414807580797754;5,615405743583484;1,4648884548478653
12:13:15.846;0;Mov;1;13944;10,96;0;0;0;-0,35650503817674795;-0,07776116214484084;0,007177953801294938;-0,18311105685598317;3,326517532883694;0,3357036042359691
12:13:15.846;0;Mov;1;13945;10,96;0;0;0;-0,22969452164143803;-0,1315958128604999;-0,010766930701942408;-0,640888698995941;1,4954069643238623;-0,5798516800439466
12:13:15.848;0;Mov;1;13946;10,4;0;0;0;-0,20935697500534073;-0,17107455969897306;-0,01794488357188635;-0,9765923032319102;0,18311105685598317;-0,9765923032319102
12:13:15.848;0;Mov;1;13947;10,4;0;0;0;-0,16987822816686757;-0,1866267951082644;-0,05024567474636257;-1,1291848506118962;-0,7629627368999298;-1,1291848506118962
12:13:15.848;0;Mov;1;13948;10,4;0;0;0;-0,12082888867801446;-0,2273018585772271;-0,06699423051154745;-1,281777397991882;-1,403851435895871;-1,2512588885158848
12:13:15.848;0;Mov;1;13949;10,4;0;0;0;-0,14475540010719626;-0,22132023071993165;-0,03947874311306917;-1,1291848506118962;-2,0142216254158147;-1,0376293221839046
12:13:15.848;0;Mov;1;13950;10,4;0;0;0;-0,31224098011146884;-0,19260842296555986;0,08493911408343378;-1,0376293221839046;-2,6551103244117558;-1,0681478316599018
12:13:15.851;0;Mov;1;13951;9,91;0;0;0;-0,4498184208292642;-0,19739371929074984;0,12082888867801446;-0,9460737937559129;-3,9063692129276406;-1,586962492751854
12:13:15.851;0;Mov;1;13952;9,91;0;0;0;-0,19739371929074984;-0,2009826989854503;-0,02990813928647725;-0,4272591326639607;-5,981627857295449;-2,2583697012237924
12:13:15.851;0;Mov;1;13953;9,91;0;0;0;0,09929502541142765;-0,3385601546048616;-0,11365092928861355;-0,12207403790398877;-6,683553575243385;-2,288888210699789
12:13:15.851;0;Mov;1;13954;9,91;0;0;0;-0,09690236979802469;-0,3900021422563097;-0,004785302378971459;0,18311105685598317;-5,859553819391461;-1,1902218695638904
12:13:15.851;0;Mov;1;13955;9,91;0;0;0;-0,39119847378841516;-0,19380473959604938;0,1531296761270867;0,7629627368999298;-5,951109347819452;-0,24414807580797754
12:13:15.914;0;Wrist;1;60270;10,49;0;0,7046357854319895;0,5192053218558306;0,7046357854319895;-0,1064729773500206;0,5192053218558306;-1,098666341135899;-5,951109347819452;3,7537766655476545
12:13:15.914;0;Wrist;1;60271;10,49;0;0,9163854235015412;0;0,9163854235015412;-0,1543260076591922;0,32420423582605973;-1,098666341135899;-7,049775688955352;4,4557023834955904
12:13:15.915;0;Wrist;1;60272;10,49;0;1,2346080612735375;0;1,2346080612735375;-0,15193334459498123;0,13997008888039034;-1,8616290780358287;-7,232886745811334;4,486220892971588
12:13:15.915;0;Wrist;1;60273;10,49;0;1,1987182941297647;0;1,1987182941297647;-0,04546037097036462;0,20816065837485123;-2,9602954191717274;-5,951109347819452;3,7842951750236518
12:13:15.915;0;Wrist;1;60274;10,49;0;0,9750053407391583;0;0,9750053407391583;-0,05383465071565905;0,36009400296983246;-3,845332193975646;-5,1576281014435255;2,71614734336375
12:13:15.936;0;Mov;1;13956;10,25;0;0;0;-0,3361674915406507;-0,10527665326872311;0,13997008888039034;0,8239997558519242;-7,080294198431349;-0,793481246375927
12:13:15.936;0;Mov;1;13957;10,25;0;0;0;-0,1387737722499008;-0,2476394052133244;0,04187139500106815;0,640888698995941;-8,056886501663259;-1,5259254737998595
12:13:15.936;0;Mov;1;13958;10,25;0;0;0;-0,09690236979802469;-0,2990813928647725;0,0023926511894857296;0,9155552842799157;-8,087405011139255;-1,586962492751854
12:13:15.936;0;Mov;1;13959;10,25;0;0;0;-0,08733176969683676;-0,26558428878521073;-0,003588976900647469;1,098666341135899;-7,660145878475295;-1,3428144169438765
12:13:15.936;0;Mov;1;13960;10,25;0;0;0;-0,11125828112601856;-0,21174962316793572;0,003588976900647469;0,8850367748039186;-7,202368236335337;-1,2512588885158848
12:13:15.938;0;Mov;1;13961;9,81;0;0;0;-0,0717795342875454;-0,2273018585772271;-0,0478530228583636;0,640888698995941;-6,8666646320993685;-1,4648884548478653
12:13:15.938;0;Mov;1;13962;9,81;0;0;0;-0,20935697500534073;-0,16628926337378308;0,0466566987770661;0,3051850947599719;-6,714072084719382;-1,586962492751854
12:13:15.939;0;Mov;1;13963;9,81;0;0;0;-0,3194189395008698;-0,0466566987770661;0,12800683316579944;-0,5188146610919523;-7,293923764763329;-1,7700735496078372
12:13:15.939;0;Mov;1;13964;9,81;0;0;0;-0,29549242807168796;-0,2739585499034852;0,0466566987770661;-0,9765923032319102;-8,911404766991181;-2,197332682271798
12:13:15.939;0;Mov;1;13965;9,81;0;-0,5443281350138859;0;-0,5443281350138859;-0,2464430736812189;0,3050630207220679;-0,8545182653279214;-11,444441053498947;-2,5025177770317697
12:13:15.943;0;Wrist;1;60275;10,26;0;0,9127963991019928;0;0,9127963991019928;-0,2273018585772271;0,43306986878948334;-4,058961760307627;-4,699850459303567;2,0142216254158147
12:13:15.943;0;Wrist;1;60276;10,26;0;0,9427045979949339;0;0,9427045979949339;-0,24046144582392345;0,358897671437727;-3,5706656086916717;-4,791405987731559;1,8005920590838342
12:13:15.943;0;Wrist;1;60277;10,26;0;0,9223670513588367;0;0,9223670513588367;-0,14954069643238624;0,35770133990562153;-3,326517532883694;-4,791405987731559;1,9837031159398175
12:13:15.943;0;Wrist;1;60278;10,26;0;1,0515702011551256;0;1,0515702011551256;-0,28472550388920254;0,31224098011146884;-3,2654805139316996;-4,8829615161595505;2,0142216254158147
12:13:15.943;0;Wrist;1;60279;10,26;0;1,2441785943174535;0;1,2441785943174535;-0,26438795725310527;0,18782311173875393;-3,0823694570757163;-4,394665364543596;2,1362956633198036
12:13:15.944;0;Wrist;1;60280;9,8;0;1,2011108975875118;0;1,2011108975875118;-0,10168767357402264;0,1794488357188635;-2,807702871791742;-2,71614734336375;1,8616290780358287
12:13:15.944;0;Wrist;1;60281;9,8;0;0,8517838188001648;0;0,8517838188001648;0,0346934430624752;0,3289895321512497;-3,448591570787683;-1,6785180211798456;0,793481246375927
12:13:15.944;0;Wrist;1;60282;9,8;0;0,6998504593035676;0;0,6998504593035676;0,010766930701942408;0,4653706711401715;-4,089480269783624;-2,563554795983764;-0,09155552842799158
12:13:15.944;0;Wrist;1;60283;9,8;0;0,7094210519539476;0,5682546464430677;0,7094210519539476;0,013159581658590389;0,5682546464430677;-4,66933194982757;-4,0284432508316295;-0,8850367748039186
12:13:15.944;0;Wrist;1;60284;9,8;0;0,598162785729545;0,7859859123699149;0,598162785729545;0,014355907602589877;0,7859859123699149;-5,798516800439467;-6,2868129520554215;-2,0142216254158147
12:13:16.087;0;Mov;1;13966;10,68;0;0;0;-0,3313821952154607;-0,1339884610230949;0,10168767357402264;-0,5188146610919523;-15,472884304330577;-2,7771843623157446
12:13:16.087;0;Mov;1;13967;10,68;0;0;0;-0,003588976900647469;-0,22132023071993165;-0,21055330653744622;0,24414807580797754;-17,334513382366406;-3,3875545518356884
12:13:16.088;0;Mov;1;13968;10,68;0;0;0;-0,009570604757942918;-0,4462294560361797;-0,24165777735602892;0,45777764213995786;-16,3274025696585;-2,9908139286477247
12:13:16.088;0;Mov;1;13969;10,68;0;0;0;0,03230079117447623;-0,412732322153386;-0,2942960965395825;0,8239997558519242;-15,350810266426588;-1,8921475875118259
12:13:16.088;0;Mov;1;13970;10,68;0;0;0;0,15552232428968168;-0,34095278786584066;-0,35770133990562153;1,4343699453718681;-14,1300698873867;-0,9460737937559129
12:13:16.091;0;Mov;1;13971;10,26;0;0;0;0,119632557145909;-0,3780388865417188;-0,2859218056180761;2,2278511917477952;-11,749626148258919;-0,3051850947599719
12:13:16.091;0;Mov;1;13972;10,26;0;0;0;-0,1890194432708594;-0,2942960965395825;0,0346934430624752;2,9297769096957307;-10,132145146031068;0,21362956633198035
12:13:16.091;0;Mov;1;13973;10,26;0;0;0;-0,119632557145909;-0,1315958128604999;-0,06101260637965598;2,8992584002197335;-10,406811731315043;0,3357036042359691
12:13:16.091;0;Mov;1;13974;10,26;0;0;0;0,1914120914334544;-0,2596026609279153;-0,3146336431756798;3,1128879665517135;-10,162663655507066;-0,09155552842799158
12:13:16.091;0;Mov;1;13975;10,26;0;0;0;0,15552232428968168;-0,32061527103297527;-0,1674855800042726;3,1434064760277107;-7,782219916379284;0,21362956633198035
12:13:16.093;0;Mov;1;13976;9,89;0;0;0;-0,14834437980189671;-0,21653493439474167;-0,04904935066506508;3,1128879665517135;-5,615405743583484;0,8239997558519242
12:13:16.093;0;Mov;1;13977;9,89;0;0;0;-0,10049134949272515;-0,14714804826979125;-0,10527665326872311;3,204443494979705;-5,798516800439467;0,5798516800439466
12:13:16.093;0;Mov;1;13978;9,89;0;0;0;0,11484726082071901;-0,3146336431756798;-0,21055330653744622;3,5706656086916717;-5,523850215155492;0,15259254737998595
12:13:16.096;0;Mov;1;13979;9,89;0;0;0;-0,11604358490201651;-0,34095278786584066;0,0023926511894857296;3,69273964659566;-3,9063692129276406;0,8545182653279214
12:13:16.096;0;Mov;1;13980;9,89;0;0;0;-0,358897671437727;-0,16987822816686757;0,06699423051154745;3,6011841181676685;-4,0284432508316295;1,5564439832758568
12:13:16.162;0;Mov;1;13981;10,02;0;0;0;-0,2153386028626362;-0,1961974026602603;-0,0466566987770661;4,119998779259621;-5,7374797814874725;1,4648884548478653
12:13:16.162;0;Mov;1;13982;10,02;0;0;0;-0,46058534501174964;-0,2775475444998016;0,23089083827192755;4,089480269783624;-6,95822016052736;1,6174810022278512
12:13:16.162;0;Mov;1;13983;10,02;0;-0,6663533552240058;0;-0,6663533552240058;-0,2273018585772271;0,26438795725310527;4,058961760307627;-10,162663655507066;2,044740134891812
12:13:16.162;0;Mov;1;13984;10,02;0;0;0;-0,29309976500747703;-0,07297585836884289;0,0478530228583636;4,8829615161595505;-14,89303262428663;1,5259254737998595
12:13:16.162;0;Mov;1;13985;10,02;0;0;0;-0,2440504255186239;-0,13638112408730582;0,09809870133013016;5,035554063539537;-16,907254249702444;1,3428144169438765
12:13:16.176;0;Mov;1;13986;9,75;0;0;0;-0,14236275194460127;-0,2679769220461898;-0,04187139500106815;6,103701895199438;-18,219550157170325;1,5564439832758568
12:13:16.176;0;Mov;1;13987;9,75;0;0;0;0,09092074194072924;-0,14954069643238624;-0,18303781541356395;6,561479537339396;-18,67732779931028;1,403851435895871
12:13:16.176;0;Mov;1;13988;9,75;0;0;0;-0,025122837373181287;-0,08613544561553926;-0,06340525826765496;6,256294442579424;-17,303994872890406;1,1597033600878932
12:13:16.177;0;Mov;1;13989;9,75;0;0;0;-0,22849819010933256;-0,10288399765532014;0,0598162785729545;5,493331705679495;-17,242957853938414;1,1291848506118962
12:13:16.177;0;Mov;1;13990;9,75;0;0;0;-0,1292031646979049;-0,13279214439260537;-0,0693868861249504;5,462813196203498;-18,15851313821833;0,4882961516159551
12:13:16.214;0;Wrist;1;60285;11,73;0;0;0,8613544114505448;0,34813074725524157;-0,0957060457167272;0,8613544114505448;-6,95822016052736;-11,322367015594958;-2,685628833887753
12:13:16.214;0;Wrist;1;60286;11,73;0;0;0,5802179021576587;0,46297800807596057;-0,06699423051154745;0,5802179021576587;-8,6977752006592;-17,426068910794395;-1,8921475875118259
12:13:16.214;0;Wrist;1;60287;11,73;0;0,8230719812425611;0;0,8230719812425611;-0,0466566987770661;0,1674855800042726;-10,162663655507066;-22,73628955961791;-0,15259254737998595
12:13:16.215;0;Wrist;1;60288;11,73;0;1,1245460371715446;0;1,1245460371715446;-0,2512283700064089;-0,03349711525577372;-10,864589373455;-25,513473921933652;1,3428144169438765
12:13:16.215;0;Wrist;1;60289;11,73;0;1,2537492465742972;0;1,2537492465742972;-0,3014740559289834;-0,06101260637965598;-9,857478560747094;-24,14014099551378;1,7090365306558428
12:13:16.217;0;Wrist;1;60290;11,26;0;0,994146585646382;0;0,994146585646382;-0,08613544561553926;0,34932707878734703;-7,965330973235267;-21,271401104770042;1,0681478316599018
12:13:16.217;0;Wrist;1;60291;11,26;0;0,7812005862414929;0;0,7812005862414929;-0,12322153684060945;0,3146336431756798;-7,263405255287331;-21,63762321848201;0,6714072084719382
12:13:16.217;0;Wrist;1;60292;11,26;0;1,055159225554674;0;1,055159225554674;-0,3864131774632252;0,04306772280776963;-7,080294198431349;-22,583697012237923;0,8545182653279214
12:13:16.217;0;Wrist;1;60293;11,26;0;1,1819697122867519;0;1,1819697122867519;-0,24524674214911343;0,0933133975541322;-5,76799829096347;-20,661030915250098;0,8545182653279214
12:13:16.217;0;Wrist;1;60294;11,26;0;0,9869685964537492;0;0,9869685964537492;-0,11484726082071901;0,15671865582178715;-4,364146855067599;-18,82992034669027;0,15259254737998595
12:13:16.219;0;Wrist;1;60295;10,83;0;1,0264473879970701;0;1,0264473879970701;-0,33257852674756616;-0,00598162785729545;-3,936887722403638;-18,06695760979034;-0,27466658528397475
12:13:16.219;0;Wrist;1;60296;10,83;0;1,13052766502884;0;1,13052766502884;-0,3780388865417188;-0,019141209515885837;-2,8992584002197335;-16,449476607562488;0,061037018951994385
12:13:16.219;0;Wrist;1;60297;10,83;0;1,0132878305536057;0;1,0132878305536057;-0,038282419031771674;0,21653493439474167;-1,281777397991882;-14,221625415814692;-0,12207403790398877
12:13:16.220;0;Wrist;1;60298;10,83;0;0,9498825275811029;0;0,9498825275811029;-0,07536851398224585;-0,004785302378971459;-1,1902218695638904;-13,763847773674733;-0,640888698995941
12:13:16.220;0;Wrist;1;60299;10,83;0;0,9630420850245675;0;0,9630420850245675;-0,1890194432708594;-0,009570604757942918;-1,7090365306558428;-13,946958830530717;-0,12207403790398877
12:13:16.221;0;Wrist;1;60300;10,44;0;0,8613544114505448;0;0,8613544114505448;-0,16389660030957212;0,290707131746498;-1,403851435895871;-13,519699697866756;0,3967406231879635
12:13:16.221;0;Wrist;1;60301;10,44;0;0,7345439247184667;0;0,7345439247184667;-0,12202521275931195;0,48211922317995237;-0,6714072084719382;-13,702810754722739;0,7629627368999298
12:13:16.221;0;Wrist;1;60302;10,44;0;1,0324290158543656;0;1,0324290158543656;-0,038282419031771674;-0,08254646592083881;-0,6714072084719382;-13,702810754722739;1,5259254737998595
12:13:16.221;0;Wrist;1;60303;10,44;0;0,9510788293099764;0;0,9510788293099764;0,06699423051154745;0,16628926337378308;-1,1902218695638904;-14,313180944242683;0,36622211371196634
12:13:16.223;0;Wrist;1;60304;10,44;0;0,8769066319582202;0;0,8769066319582202;-0,1770561875562685;0,15193334459498123;-0,6714072084719382;-14,831995605334635;-0,21362956633198035
12:13:16.225;0;Wrist;1;60305;10,07;0;1,095834199613941;0;1,095834199613941;-0,3014740559289834;-0,06819056204365291;-0,3357036042359691;-14,404736472670674;0,030518509475997192
12:13:16.225;0;Wrist;1;60306;10,07;0;1,0635334568697166;0;1,0635334568697166;-0,34095278786584066;0,07417218990094836;1,3428144169438765;-12,237922299874874;0,030518509475997192
12:13:16.225;0;Wrist;1;60307;10,07;0;0,9654347480887784;0;0,9654347480887784;-0,19500107112815485;0,18064516725096896;3,0823694570757163;-10,65095980712302;-0,18311105685598317
12:13:16.226;0;Wrist;1;60308;10,07;0;1,0790857369838558;0;1,0790857369838558;-0,29668875960379343;-0,17585985602416304;4,1810357982116155;-9,949034089175084;-0,21362956633198035
12:13:16.226;0;Wrist;1;60309;10,07;-0,5969664840006714;1,2752830353328044;0;1,2752830353328044;-0,5969664840006714;-0,234479817966628;5,340739158299509;-7,538071840571306;-0,030518509475997192
12:13:16.244;0;Wrist;1;60310;9,86;-0,5861995300149541;1,2645162005600146;0;1,2645162005600146;-0,5861995300149541;-0,1961974026602603;7,965330973235267;-3,295999023407697;-0,27466658528397475
12:13:16.244;0;Wrist;1;60311;9,86;0;1,3410809417630543;0;1,3410809417630543;-0,32779320061914424;-0,415124985217597;10,101626636555071;1,3122959074678793;-0,6103701895199438
12:13:16.244;0;Wrist;1;60312;9,86;0;1,2513565239036226;0;1,2513565239036226;-0,20457167868015075;-0,12681051653530992;11,780144657734915;6,378368480483413;-1,4343699453718681
12:13:16.244;0;Wrist;1;60313;9,86;0;0,9546678537095248;0;0,9546678537095248;-0,3696645956202124;0,16509293184167761;13,519699697866756;9,308145390179144;-2,685628833887753
12:13:16.244;0;Wrist;1;60314;9,86;0;0,9080111325800347;0;0,9080111325800347;-0,3612903345019379;0,08493911408343378;13,336588641010772;10,010071108127079;-2,3499252296517836
12:13:16.295;0;Mov;1;13991;10,25;0;0;0;0,05742363041035951;-0,17585985602416304;-0,19021577480296487;4,516739402447585;-18,15851313821833;0,640888698995941
12:13:16.295;0;Mov;1;13992;10,25;0;0;0;0,0957060457167272;-0,239265114291818;-0,2273018585772271;3,173924985503708;-17,120883816034425;0,640888698995941
12:13:16.296;0;Mov;1;13993;10,25;0;0;0;0,09211707347283471;-0,3050630207220679;-0,28113650929288614;3,051850947599719;-14,954069643238624;0,5493331705679495
12:13:16.296;0;Mov;1;13994;10,25;0;0;0;0,06101260637965598;-0,34932707878734703;-0,22610554194673757;2,807702871791742;-12,543107394634847;0,45777764213995786
12:13:16.296;0;Mov;1;13995;10,25;0;0;0;-0,03708609495047418;-0,290707131746498;-0,1184362330646115;2,9602954191717274;-10,43733024079104;0,4882961516159551
12:13:16.297;0;Mov;1;13996;9,92;0;0;0;-0,0119632557145909;-0,23806879766132846;-0,0957060457167272;2,9908139286477247;-9,186071352275155;0,7019257179479355
12:13:16.298;0;Mov;1;13997;9,92;0;0;0;0,05383465071565905;-0,10527665326872311;-0,11125828112601856;2,197332682271798;-7,5685903500473035;0,9765923032319102
12:13:16.298;0;Mov;1;13998;9,92;0;0;0;0,07417218990094836;-0,08852809377813425;-0,1411664204124958;1,4954069643238623;-6,225775933103427;0,9155552842799157
12:13:16.298;0;Mov;1;13999;9,92;0;0;0;-0,02990813928647725;-0,11006195704472106;-0,08972441785943175;1,0681478316599018;-4,638813440351573;0,8239997558519242
12:13:16.298;0;Mov;1;14000;9,92;0;0;0;-0,17466353939367352;-0,119632557145909;0,007177953801294938;0,9460737937559129;-3,8758507034516434;0,5188146610919523
12:13:16.329;0;Mov;1;14001;9,79;0;0;0;-0,20816065837485123;-0,1866267951082644;0,010766930701942408;0,793481246375927;-4,364146855067599;0,3357036042359691
12:13:16.329;0;Mov;1;14002;9,79;0;0;0;-0,16868191153637807;-0,20576799531064027;-0,021533861403884816;0,4882961516159551;-5,096591082491531;0,3967406231879635
12:13:16.329;0;Mov;1;14003;9,79;0;0;0;-0,11006195704472106;-0,13997008888039034;-0,08733176969683676;-0,030518509475997192;-5,371257667775506;0,3051850947599719
12:13:16.329;0;Mov;1;14004;9,79;0;0;0;-0,11604358490201651;-0,17346720786156805;0,04546037097036462;0,18311105685598317;-4,974517044587542;-0,030518509475997192
12:13:16.329;0;Mov;1;14005;9,79;0;0;0;-0,37205725868442335;-0,2249092104146321;0,15911130398438214;-0,061037018951994385;-5,462813196203498;0,3051850947599719
12:13:16.363;0;Wrist;1;60315;10,33;0;0,8027344942129276;0;0,8027344942129276;-0,0705832102062479;0,10049134949272515;12,085329752494888;10,284737693411055;-1,5564439832758568
12:13:16.363;0;Wrist;1;60316;10,33;0;0,7034394240966522;0;0,7034394240966522;-0,05742363041035951;0,26917325357829525;10,43733024079104;9,369182409131138;-1,3428144169438765
12:13:16.363;0;Wrist;1;60317;10,33;0;0,7560777730834376;0;0,7560777730834376;-0,3098483170472579;0,239265114291818;8,850367748039186;7,660145878475295;-0,8239997558519242
12:13:16.363;0;Wrist;1;60318;10,33;0;1,022858363597522;0;1,022858363597522;-0,3971801016457106;-0,019141209515885837;8,331553086947233;6,897183141575366;-0,09155552842799158
12:13:16.363;0;Wrist;1;60319;10,33;0;0,9881649577890865;0;0,9881649577890865;-0,3265968988902707;0,17346720786156805;8,331553086947233;7,538071840571306;0
12:13:16.365;0;Wrist;1;60320;10;0;0,8111087255279702;0;0,8111087255279702;-0,30027772439687794;0,23567614949873347;8,301034577471237;7,446516312143315;0,18311105685598317
12:13:16.365;0;Wrist;1;60321;10;0;0,8362315982924894;0;0,8362315982924894;-0,40675069429609056;0,16270028367908262;7,599108859523301;6,897183141575366;1,098666341135899
12:13:16.365;0;Wrist;1;60322;10;0;0,9116000973731193;0;0,9116000973731193;-0,3361674915406507;0,13997008888039034;7,080294198431349;6,530961027863399;2,288888210699789
12:13:16.365;0;Wrist;1;60323;10;0;0,7584704361476485;0;0,7584704361476485;-0,17107455969897306;0,417517618478576;6,805627613147374;6,561479537339396;2,71614734336375
12:13:16.365;0;Wrist;1;60324;10;0;0,5503097628711814;0;0,5503097628711814;-0,2548173646027253;0,4857081879730369;7,263405255287331;4,7303689687795645;3,1434064760277107
12:13:16.415;0;Mov;1;14006;10,03;0;0;0;-0,20337534714804528;-0,1866267951082644;0,0358897671437727;-0,36622211371196634;-7,812738425855281;0,3357036042359691
12:13:16.415;0;Mov;1;14007;10,03;0;0;0;-0,05503097852236053;-0,20816065837485123;-0,04904935066506508;0,18311105685598317;-8,728293710135198;0,24414807580797754
12:13:16.415;0;Mov;1;14008;10,03;0;0;0;-0,2942960965395825;-0,23567614949873347;0,1292031646979049;0,6714072084719382;-8,667256691183203;0,15259254737998595
12:13:16.415;0;Mov;1;14009;10,03;0;0;0;-0,26558428878521073;-0,24524674214911343;-0,014355907602589877;1,5259254737998595;-10,22370067445906;-0,18311105685598317
12:13:16.415;0;Mov;1;14010;10,03;0;0;0;-0,1411664204124958;-0,32420423582605973;0,0693868861249504;1,5564439832758568;-11,047700430310984;-0,24414807580797754
12:13:16.505;0;Mov;1;14011;10,29;0;0;0;-0,4199102815427869;-0,2548173646027253;0,14236275194460127;0,27466658528397475;-11,658070619830928;0,3357036042359691
12:13:16.506;0;Mov;1;14012;10,29;0;0;0;-0,28352917235709707;-0,33975645633373514;-0,07776116214484084;0,7019257179479355;-13,824884792626728;0,3357036042359691
12:13:16.506;0;Mov;1;14013;10,29;0;0;0;-0,20457167868015075;-0,39598377011360514;0,015552232615238368;0,640888698995941;-14,801477095858639;-0,3051850947599719
12:13:16.506;0;Mov;1;14014;10,29;0;0;0;-0,2512283700064089;-0,43187353725737787;0,010766930701942408;0,9155552842799157;-14,984588152714622;-0,6714072084719382
12:13:16.506;0;Mov;1;14015;10,29;0;0;0;-0,3313821952154607;-0,39957273490668965;-0,014355907602589877;0,9460737937559129;-15,564439832758568;-0,9155552842799157
12:13:16.508;0;Mov;1;14016;9,99;0;0;0;-0,2715659166425062;-0,3146336431756798;0,052638326634361556;1,6785180211798456;-16,724143192846462;-1,5564439832758568
12:13:16.508;0;Mov;1;14017;9,99;0;0;0;-0,09211707347283471;-0,14954069643238624;-0,06220893046095347;1,9837031159398175;-17,334513382366406;-2,044740134891812
12:13:16.508;0;Mov;1;14018;9,99;0;0;0;-0,00598162785729545;0,11604358490201651;-0,11604358490201651;1,8311105685598315;-17,05984679708243;-2,075258644367809
12:13:16.509;0;Mov;1;14019;9,99;0;0;0;-0,08733176969683676;0,2464430736812189;0,03230079117447623;1,5259254737998595;-16,663106173894466;-2,166814172795801
12:13:16.509;0;Mov;1;14020;9,99;0;0;0;-0,2488357218438139;0,08613544561553926;0,16628926337378308;0,5493331705679495;-16,663106173894466;-1,8616290780358287
12:13:16.543;0;Wrist;1;60325;10,82;0;0,8505875170712912;0;0,8505875170712912;-0,49049348429822687;0,2596026609279153;6,988738670003357;1,8311105685598315;4,638813440351573
12:13:16.543;0;Wrist;1;60326;10,82;0;0,7943602032914212;0;0,7943602032914212;-0,20576799531064027;0,36846829389133884;8,117923520615253;1,0681478316599018;5,371257667775506
12:13:16.543;0;Wrist;1;60327;10,82;0;0,6268746232871486;0;0,6268746232871486;-0,19021577480296487;0,33018586368335523;8,819849238563188;-0,6714072084719382;5,523850215155492
12:13:16.543;0;Wrist;1;60328;10,82;0;0,9833796316606647;0;0,9833796316606647;-0,468959635933256;-0,06579790643024995;8,911404766991181;-3,2349620044557024;6,500442518387402
12:13:16.543;0;Wrist;1;60329;10,82;0;1,0491775976973785;0;1,0491775976973785;-0,32420423582605973;-0,26199529418889433;9,216589861751151;-3,295999023407697;7,324442274239326
12:13:16.545;0;Wrist;1;60330;10,5;0;1,1030122484130376;0;1,1030122484130376;-0,33018586368335523;-0,20696432684274574;8,301034577471237;-3,3875545518356884;7,812738425855281
12:13:16.545;0;Wrist;1;60331;10,5;0;1,4284127561647388;-0,525186949713126;1,4284127561647388;-0,39119847378841516;-0,525186949713126;7,477034821619312;-2,2583697012237924;7,599108859523301
12:13:16.545;0;Wrist;1;60332;10,5;0;1,853108334032716;-0,7967528663556321;1,853108334032716;-0,13757744071779535;-0,7967528663556321;6,591998046815394;1,3428144169438765;6,591998046815394
12:13:16.545;0;Wrist;1;60333;10,5;0;1,4403760118793298;0;1,4403760118793298;0,18064516725096896;-0,18543046357615894;6,103701895199438;6,95822016052736;3,5401470992156745
12:13:16.546;0;Wrist;1;60334;10,5;0;0,5921811578722496;0;0,5921811578722496;0,2009826989854503;0,3194189395008698;5,096591082491531;9,918515579699088;0,5493331705679495
12:13:16.547;0;Wrist;1;60335;10,19;0;0;0,7321512616542558;0,06579790643024995;-0,07895748622613834;0,7321512616542558;3,662221137119663;8,911404766991181;0,5493331705679495
12:13:16.547;0;Wrist;1;60336;10,19;0;0;0;0,3780388865417188;-0,17585985602416304;0,49408247889454326;1,4954069643238623;4,913480025635548;2,380443739127781
12:13:16.547;0;Wrist;1;60337;10,19;0;0,7764153197195349;0;0,7764153197195349;0,14954069643238624;0,2129459547000412;-0,6103701895199438;2,4719992675557725;3,448591570787683
12:13:16.548;0;Wrist;1;60338;10,19;0;0,7656483657338176;0;0,7656483657338176;0,17466353939367352;0,15671865582178715;-2,8992584002197335;2,1362956633198036;2,410962248603778
12:13:16.548;0;Wrist;1;60339;10,19;0;0,6723349830813014;0;0,6723349830813014;0,014355907602589877;0,38402051439901425;-3,936887722403638;0,5798516800439466;0,9460737937559129
12:13:16.551;0;Wrist;1;60340;9,91;0;0,8781029932935576;0;0,8781029932935576;-0,01794488357188635;0,2153386028626362;-4,760887478255562;-1,6174810022278512;0,6714072084719382
12:13:16.551;0;Wrist;1;60341;9,91;0;1,17718438615833;0;1,17718438615833;-0,0717795342875454;-0,16509293184167761;-6,073183385723441;-1,3122959074678793;0,030518509475997192
12:13:16.551;0;Wrist;1;60342;9,91;0;1,2525529448454238;0;1,2525529448454238;-0,0837427900021363;-0,1339884610230949;-5,7374797814874725;2,044740134891812;-0,8545182653279214
12:13:16.551;0;Wrist;1;60343;9,91;0;0,8505875170712912;0;0,8505875170712912;0,0358897671437727;0,1674855800042726;-6,0121463667714465;5,188146610919523;-1,3733329264198737
12:13:16.551;0;Wrist;1;60344;9,91;0;0,7871822140987884;0;0,7871822140987884;-0,290707131746498;0,32300790429395426;-6,714072084719382;5,920590838343455;-1,0071108127079074
12:13:16.605;0;Mov;1;14021;10,27;0;0;0;-0,23567614949873347;-0,010766930701942408;-0,0358897671437727;-0,09155552842799158;-17,700735496078373;-1,5564439832758568
12:13:16.605;0;Mov;1;14022;10,27;0;0;0;-0,0933133975541322;-0,014355907602589877;-0,0717795342875454;-0,030518509475997192;-18,311105685598314;-1,6174810022278512
12:13:16.605;0;Mov;1;14023;10,27;0;0;0;0,06699423051154745;-0,1339884610230949;-0,21414228623214668;0,8239997558519242;-17,578661458174384;-1,3122959074678793
12:13:16.605;0;Mov;1;14024;10,27;0;0;0;0,22610554194673757;-0,3313821952154607;-0,4246955778679769;1,6479995117038484;-15,259254737998596;-0,7629627368999298
12:13:16.605;0;Mov;1;14025;10,27;0;0;0;0,2787438760319071;-0,363682967762917;-0,45938904328287605;3,295999023407697;-11,993774224066897;-0,3357036042359691
12:13:16.606;0;Mov;1;14026;9,98;0;0;0;0,18303781541356395;-0,297885061332667;-0,2942960965395825;4,699850459303567;-9,002960295419172;0,061037018951994385
12:13:16.606;0;Mov;1;14027;9,98;0;0;0;-0,08015381775824382;-0,27635121296769616;-0,0346934430624752;5,76799829096347;-6,74459059419538;0,4882961516159551
12:13:16.607;0;Mov;1;14028;9,98;0;0;-0,5132236939985351;0,21414228623214668;-0,19978636745334483;-0,5132236939985351;7,477034821619312;-5,829035309915464;0,5188146610919523
12:13:16.607;0;Mov;1;14029;9,98;0;0,6795129126674703;-0,8218756795136876;0,6795129126674703;-0,31104464857936337;-0,8218756795136876;9,03347880489517;-1,922666096987823;0,9460737937559129
12:13:16.607;0;Mov;1;14030;9,98;-0,7321512616542558;0,717795342875454;-0,7321512616542558;0,717795342875454;-0,7321512616542558;-0,7321512616542558;11,474959562974945;4,699850459303567;2,1057771538438064
12:13:16.655;0;Mov;1;14031;9,97;-0,9893612595179602;0,6675496569528794;-0,7680410287980285;0,6675496569528794;-0,9893612595179602;-0,7680410287980285;15,259254737998596;11,719107638782923;3,814813684499649
12:13:16.655;0;Mov;1;14032;9,97;-1,1472762468718527;0,6735312848101749;-0,7237769707327494;0,6735312848101749;-1,1472762468718527;-0,7237769707327494;20,172734763634143;18,951994384594258;5,493331705679495
12:13:16.655;0;Mov;1;14033;9,97;-0,7321512616542558;0;0;0,4701559674653615;-0,7321512616542558;0,35291604358043155;22,858363597521898;26,245918149357585;7,538071840571306
12:13:16.655;0;Mov;1;14034;9,97;0;0,6663533552240058;0;0,6663533552240058;0,415124985217597;-0,1184362330646115;20,41688283944212;32,10547196874904;11,53599658192694
12:13:16.656;0;Mov;1;14035;9,97;0,5538987276642658;1,1807734105578784;0;1,1807734105578784;0,5538987276642658;-0,35291604358043155;17,365031891842403;39,063692129276404;18,06695760979034
12:13:16.664;0;Wrist;1;60345;10,28;-0,8984405399296549;0,930741342280343;0;0,930741342280343;-0,8984405399296549;0,3888058107242042;-4,394665364543596;6,4394054994354075;0,8850367748039186
12:13:16.664;0;Wrist;1;60346;10,28;0;0,7369365877826777;0;0,7369365877826777;-0,05503097852236053;0,2679769220461898;-3,2654805139316996;6,2868129520554215;3,173924985503708
12:13:16.664;0;Wrist;1;60347;10,28;0;0,7070284484962004;0;0,7070284484962004;-0,04187139500106815;0,17585985602416304;-2,685628833887753;6,591998046815394;3,9063692129276406
12:13:16.664;0;Wrist;1;60348;10,28;0;0,9211706900234993;0;0,9211706900234993;0,09211707347283471;0,07776116214484084;-4,058961760307627;6,40888698995941;4,058961760307627
12:13:16.664;0;Wrist;1;60349;10,28;0;1,463106221579638;0;1,463106221579638;0,29668875960379343;0,19021577480296487;-5,7374797814874725;7,080294198431349;2,8687398907437363
12:13:16.665;0;Wrist;1;60350;10;0;1,7574022883159885;0;1,7574022883159885;0,08493911408343378;-0,0598162785729545;-9,67436750389111;11,261329996642964;-0,3967406231879635
12:13:16.665;0;Wrist;1;60351;10;0;0,7632557026696066;0,5634693799211097;0,7632557026696066;0,2775475444998016;0,5634693799211097;-12,604144413586841;15,503402813806574;-4,333628345591602
12:13:16.665;0;Wrist;1;60352;10;0;0,7453108190977202;0,6017517505226295;0,7453108190977202;-0,07656483806354335;0,6017517505226295;-11,261329996642964;19,77599414044618;-6,805627613147374
12:13:16.665;0;Wrist;1;60353;10;0;1,1006195257423628;0;1,1006195257423628;-0,3947874385814997;0,4952788104266488;-7,751701406903287;29,053621021149326;-6,561479537339396
12:13:16.665;0;Wrist;1;60354;10;0;1,2346080612735375;0;1,2346080612735375;-0,28831446868228705;0,43546250205046233;-7,629627368999298;37,29361857966857;-4,760887478255562
12:13:16.686;0;Mov;1;14036;9,87;-1,26212347788934;0;0,7154026798112431;-0,3289895321512497;-1,26212347788934;0,7154026798112431;21,72917874691;51,82042909024323;27,253028962065493
12:13:16.686;0;Mov;1;14037;9,87;-1,1987182941297647;0;0;-0,2129459547000412;-1,1987182941297647;0,40794702582819603;33,20413830988495;57,222205267494736;33,23465681936094
12:13:16.687;0;Mov;1;14038;9,87;1,203503501045259;0,8003418311487167;0;0,8003418311487167;1,203503501045259;0,40316172950300605;35,401470992156746;62,59346293527024;41,932432020020144
12:13:16.687;0;Mov;1;14039;9,87;-1,2334116403317361;0,6842982387958922;1,9093357074190496;0,6842982387958922;-1,2334116403317361;1,9093357074190496;36,89687795648061;76,66249580370494;53,16324350718711
12:13:16.687;0;Mov;1;14040;9,87;-3,2552019753105257;0;1,4140568969924008;0,297885061332667;-3,2552019753105257;1,4140568969924008;50,47761467329936;92,65419476912747;62,16620380260628
12:13:16.727;0;Wrist;1;60355;10,06;0;1,3279213843195898;0;1,3279213843195898;0,015552232615238368;0,32420423582605973;-6,8666646320993685;45,99139378032777;-3,967406231879635
12:13:16.728;0;Wrist;1;60356;10,06;0,5610767168568987;0;0,5192053218558306;0,23567614949873347;0,5610767168568987;0,5192053218558306;-4,4557023834955904;55,940427869502855;-4,516739402447585
12:13:16.728;0;Wrist;1;60357;10,06;0,5048494030770287;0,6747276461455123;0;0,6747276461455123;0,5048494030770287;0,32540056735816525;-13,061922055726798;53,98724326303903;-7,019257179479355
12:13:16.728;0;Wrist;1;60358;10,06;0;1,3183508512756736;0;1,3183508512756736;0,3935911070493942;-0,13279214439260537;-20,508438367870113;53,16324350718711;-10,376293221839045
12:13:16.728;0;Wrist;1;60359;10,06;0,9666311094241157;1,1592395025864437;0;1,1592395025864437;0,9666311094241157;-0,3086520153183844;-24,53688161870174;51,57628101443525;-16,357921079134496
12:13:16.754;0;Wrist;1;60360;9,94;0,5383465071565905;0,532364879299295;0;0,532364879299295;0,5383465071565905;0,297885061332667;-25,818659016693626;50,78279976805933;-24,65895565660573
12:13:16.755;0;Wrist;1;60361;9,94;0;0,7249733320680868;-1,3027985711615344;0,7249733320680868;-0,06460158234895245;-1,3027985711615344;-29,267250587481307;48,432874538407546;-30,21332438123722
12:13:16.755;0;Wrist;1;60362;9,94;0;0;0;0,06340525826765496;-0,06101260637965598;-0,42110661307489244;-39,67406231879635;27,61925107577746;-31,40354625080111
12:13:16.755;0;Wrist;1;60363;9,94;0;0,7788079827837459;0;0,7788079827837459;-0,3469344157231361;0,236872466129223;-44,61806085390789;19,714957121494187;-29,908139286477248
12:13:16.755;0;Wrist;1;60364;9,94;0;0;0;0,0466566987770661;-0,22969452164143803;-0,22251656225203711;-44,61806085390789;21,423993652150028;-29,053621021149326
12:13:16.776;0;Mov;1;14041;10,09;-2,8771629993591112;0;2,7599230456709494;0,1315958128604999;-2,8771629993591112;2,7599230456709494;68,26990569780573;103,70189519943845;73,58012634662923
12:13:16.776;0;Mov;1;14042;10,09;-3,154710484252449;1,1245460371715446;3,3126256504257334;1,1245460371715446;-3,154710484252449;3,3126256504257334;92,71523178807946;114,32233649708549;82,91879024628437
12:13:16.776;0;Mov;1;14043;10,09;-6,473317762535478;2,7682975154118474;5,154966792046876;2,7682975154118474;-6,473317762535478;5,154966792046876;119,69359416486098;131,3516647846919;91,28086184270761
12:13:16.776;0;Mov;1;14044;10,09;-8,278572954496902;4,950395500808741;9,55026684621723;4,950395500808741;-8,278572954496902;9,55026684621723;149,84588152714622;150,15106662190618;99,15463728751487
12:13:16.776;0;Mov;1;14045;10,09;-7,61700510422071;8,393420781579028;14,042469367046113;8,393420781579028;-7,61700510422071;14,042469367046113;162,0532853175451;163,97595141453291;100,46693319498276
12:13:16.777;0;Mov;1;14046;9,83;-10,056313325907162;11,658192693868832;15,162230674153875;11,658192693868832;-10,056313325907162;15,162230674153875;122,22663045136875;158,8488418225654;80,93508713034456
12:13:16.777;0;Mov;1;14047;9,83;-14,144157040620136;14,573638302255318;11,720401814325388;14,573638302255318;-14,144157040620136;11,720401814325388;83,83434553056429;148,16736350596636;59,877315591906495
12:13:16.777;0;Mov;1;14048;9,83;-13,968297944578387;16,773680455946533;10,276436658833582;16,773680455946533;-13,968297944578387;10,276436658833582;84,04797509689627;137,60795922727135;43,76354258857997
12:13:16.778;0;Mov;1;14049;9,83;-12,817432554094058;17,932920316171757;11,824482329783013;17,932920316171757;-12,817432554094058;11,824482329783013;73,8853114413892;126,77388836329234;27,558214056825463
12:13:16.778;0;Mov;1;14050;9,83;-13,32467402417066;18,50356875820185;12,689425527207252;18,50356875820185;-13,32467402417066;12,689425527207252;45,5946531571398;109,10367137668996;10,101626636555071
12:13:16.797;0;Wrist;1;60365;9,91;0;0;0,5873958913502915;0,07776116214484084;-0,40794702582819603;0,5873958913502915;-45,564134647663806;15,350810266426588;-27,466658528397474
12:13:16.797;0;Wrist;1;60366;9,91;0;0,6651570534951323;0;0,6651570534951323;-0,39598377011360514;-0,0478530228583636;-46,63228247932371;17,426068910794395;-24,9946592608417
12:13:16.797;0;Wrist;1;60367;9,91;-0,5730399725714896;0;0;-0,1315958128604999;-0,5730399725714896;0,2488357218438139;-46,14398632770776;10,681478316599017;-22,49214148380993
12:13:16.797;0;Wrist;1;60368;9,91;-0,6962614945104831;0;0;0,46058534501174964;-0,6962614945104831;0,23328348643452254;-43,79406109805597;5,554368724631489;-16,998809778130436
12:13:16.797;0;Wrist;1;60369;9,91;-0,8135013885921811;0,5120273326631978;0;0,5120273326631978;-0,8135013885921811;0,35291604358043155;-40,46754356517228;-0,793481246375927;-12,207403790398876
12:13:16.836;0;Mov;1;14051;9,88;-12,658321443830683;18,14347323526719;12,213288140507217;18,14347323526719;-12,658321443830683;12,213288140507217;25,23880733664968;89,0835291604358;-6,469924008911405
12:13:16.836;0;Mov;1;14052;9,88;-10,714292390209662;17,41850032044435;11,802948660237433;17,41850032044435;-10,714292390209662;11,802948660237433;11,749626148258919;71,29123813592945;-18,921475875118258
12:13:16.836;0;Mov;1;14053;9,88;-9,52753723258156;16,352574617755668;12,549455244605854;16,352574617755668;-9,52753723258156;12,549455244605854;-4,66933194982757;54,811243018890956;-25,33036286507767
12:13:16.836;0;Mov;1;14054;9,88;-9,697415654469436;14,943303285317546;13,678786965544603;14,943303285317546;-9,697415654469436;13,678786965544603;-16,907254249702444;35,645619067964724;-27,37510299996948
12:13:16.836;0;Mov;1;14055;9,88;-8,953300958281197;13,810382778405103;12,486050180059205;13,810382778405103;-8,953300958281197;12,486050180059205;-23,194067201757868;13,885921811578722;-31,434064760277106
12:13:16.873;0;Wrist;1;60370;10,04;-0,7261696337969603;0,774022656655324;0,6173040306367688;0,774022656655324;-0,7261696337969603;0,6173040306367688;-35,950804162724694;-4,486220892971588;-7,263405255287331
12:13:16.874;0;Wrist;1;60371;10,04;-0,6137150062372204;0,9283486792161321;0;0,9283486792161321;-0,6137150062372204;0,41153599062128055;-31,678212836085084;-2,8992584002197335;-2,685628833887753
12:13:16.874;0;Wrist;1;60372;10,04;0;0;0,7823969475768303;0,39837643317781607;-0,4294808741931669;0,7823969475768303;-28,656880397961363;-3,448591570787683;-0,3967406231879635
12:13:16.874;0;Wrist;1;60373;10,04;0;1,4487502431943724;0;1,4487502431943724;-0,49886777521973324;0,18423414694566942;-25,11673329874569;-2,1362956633198036;1,2207403790398876
12:13:16.874;0;Wrist;1;60374;10,04;0;1,228626433416242;0;1,228626433416242;-0,2679769220461898;-0,09929502541142765;-23,04147465437788;-1,0376293221839046;1,7090365306558428
12:13:16.904;0;Wrist;1;60375;9,94;0;0;0,6089297397152623;0,13039949623001038;-0,19978636745334483;0,6089297397152623;-21,546067690054016;-4,272591326639607;0,8239997558519242
12:13:16.904;0;Wrist;1;60376;9,94;0;0;0;0,2512283700064089;-0,3505234103194525;0,2440504255186239;-18,311105685598314;-4,8829615161595505;0,9155552842799157
12:13:16.904;0;Wrist;1;60377;9,94;0;0;0,5658619833788567;0,44503312450407423;-0,2775475444998016;0,5658619833788567;-17,334513382366406;-12,756736960966826;1,73955504013184
12:13:16.904;0;Wrist;1;60378;9,94;0;0,8123050868633076;0,6208929954298532;0,8123050868633076;-0,1531296761270867;0,6208929954298532;-15,076143681142613;-14,67940305795465;3,5706656086916717
12:13:16.904;0;Wrist;1;60379;9,94;0;0,7620594009407331;0,8757103302293466;0,7620594009407331;-0,21653493439474167;0,8757103302293466;-12,604144413586841;-14,374217963194678;4,791405987731559
12:13:16.930;0;Mov;1;14056;10,1;-7,890963564714499;12,679855113376263;10,31711210974456;12,679855113376263;-7,890963564714499;10,31711210974456;-33,99761955626087;-4,364146855067599;-36,65272988067263
12:13:16.930;0;Mov;1;14057;10,1;-8,138602671895505;11,446442876979889;8,941337702566607;11,446442876979889;-8,138602671895505;8,941337702566607;-46,20502334665975;-17,639698477126377;-40,89480269783624
12:13:16.930;0;Mov;1;14058;10,1;-8,216363834040346;10,281222342600786;7,691177480391858;10,281222342600786;-8,216363834040346;7,691177480391858;-52,1866512039552;-28,68739890743736;-47,94457838679159
12:13:16.930;0;Mov;1;14059;10,1;-7,723477984710227;9,315787415692618;6,345310735648671;9,315787415692618;-7,723477984710227;6,345310735648671;-56,398205511642814;-38,78902554399243;-58,77864925077059
12:13:16.930;0;Mov;1;14060;10,1;-7,530869472334971;8,339586130863369;5,200427449873348;8,339586130863369;-7,530869472334971;5,200427449873348;-61,89153721732231;-46,7543565172277;-71,50486770226142
12:13:16.931;0;Mov;1;14061;9,86;-7,6672509689626756;7,411236915189062;3,139158442564165;7,411236915189062;-7,6672509689626756;3,139158442564165;-66,16412854396191;-53,437910092471085;-86,64204840235602
12:13:16.931;0;Mov;1;14062;9,86;-7,116940729239784;6,7054048280281995;0;6,7054048280281995;-7,116940729239784;-0,00598162785729545;-70,40620136112553;-56,21509445478683;-106,32648701437422
12:13:16.931;0;Mov;1;14063;9,86;-6,067763489181188;5,5138644634846035;-2,5828670518356884;5,5138644634846035;-6,067763489181188;-2,5828670518356884;-80,75197607348858;-53,071687978759115;-128,91018402661214
12:13:16.931;0;Mov;1;14064;9,86;-5,1669300477614675;4,470668851283303;-4,890579222235786;4,470668851283303;-5,1669300477614675;-4,890579222235786;-93,56975005340739;-47,02902310251167;-151,61595507675406
12:13:16.932;0;Mov;1;14065;9,86;-3,9682121112704856;3,937107551042207;-7,498568968016602;3,937107551042207;-3,9682121112704856;-7,498568968016602;-102,60322885830256;-37,59880367442854;-174,44380016479994
12:13:16.993;0;Wrist;1;60380;10,13;0;1,3171544303338725;0,8589617483863338;1,3171544303338725;-0,2739585499034852;0,8589617483863338;-9,155552842799157;-11,688589129306925;6,317331461531419
12:13:16.993;0;Wrist;1;60381;10,13;0;1,6736594983138524;0,9738090390102847;1,6736594983138524;-0,3062593522541734;0,9738090390102847;-5,188146610919523;-7,263405255287331;7,873775444807276
12:13:16.993;0;Wrist;1;60382;10,13;0;1,8650715897473067;1,2250374090166936;1,8650715897473067;-0,38402051439901425;1,2250374090166936;-0,3357036042359691;-0,18311105685598317;9,552293465987121
12:13:16.993;0;Wrist;1;60383;10,13;0;2,410596026490066;1,2836573858607745;2,410596026490066;-0,3218115727618488;1,2836573858607745;4,394665364543596;9,765923032319101;10,376293221839045
12:13:16.993;0;Wrist;1;60384;10,13;0;2,871181371501816;1,5863276839121678;2,871181371501816;-0,30386668918996246;1,5863276839121678;6,469924008911405;25,45243690298166;8,423108615375225
12:13:16.994;0;Wrist;1;60385;9,9;0;4,00649424344615;1,902157658619953;4,00649424344615;-0,29190343347537157;1,902157658619953;8,6977752006592;47,48680074465163;3,2654805139316996
12:13:16.994;0;Wrist;1;60386;9,9;0;5,0640464300973544;2,584063234351634;5,0640464300973544;-0,45938904328287605;2,584063234351634;10,406811731315043;80,32471694082462;-6,256294442579424
12:13:16.994;0;Wrist;1;60387;9,9;0;6,586968691824091;3,6464003894924772;6,586968691824091;0,14714804826979125;3,6464003894924772;16,113773003326518;124,39344462416456;-20,23377178258614
12:13:16.994;0;Wrist;1;60388;9,9;0,6902798666531876;8,027344584490493;4,52211066011536;8,027344584490493;0,6902798666531876;4,52211066011536;31,769768364513077;183,56883449812312;-40,55909909360027
12:13:16.994;0;Wrist;1;60389;9,9;0,6591754256378368;9,364836382641071;8,007006859035005;9,364836382641071;0,6591754256378368;8,007006859035005;76,44886623737297;260,99429303872796;-87,31345561082797
12:13:17.113;0;Wrist;1;60390;10,22;1,833967148731956;9,136338579973755;15,752018990142522;9,136338579973755;1,833967148731956;15,752018990142522;139,43906979583116;400,1281777397992;-159,64232306894132
12:13:17.113;0;Wrist;1;60391;10,22;2,1234778893398847;8,34317491683706;17,267763679921874;8,34317491683706;2,1234778893398847;17,267763679921874;189,0316476943266;615,1615955076754;-223,9448225348674
12:13:17.114;0;Wrist;1;60392;10,22;-0,9116000973731193;9,13274979400006;17,192394405957213;9,13274979400006;-0,9116000973731193;17,192394405957213;213,56852931302836;811,2125003814814;-254,98214667195654
12:13:17.114;0;Wrist;1;60393;10,22;0;-3,498056114001892;13,409613711966308;-3,498056114001892;-0,1914120914334544;13,409613711966308;186,22394482253486;871,1813715018159;-223,24289681691945
12:13:17.114;0;Wrist;1;60394;10,22;1,1508652712714011;-15,041402172917875;11,377056184575945;-15,041402172917875;1,1508652712714011;11,377056184575945;183,08053834650715;753,9292580950346;-252,41859187597277
12:13:17.204;0;Wrist;1;60395;10,39;14,248237556077761;-1,3530441974776453;26,92450292977691;-1,3530441974776453;14,248237556077761;26,92450292977691;-10,254219183935056;320,4443494979705;-236,42689291055024
12:13:17.204;0;Wrist;1;60396;10,39;14,132193784905546;10,29438154240547;9,223670155949584;10,29438154240547;14,132193784905546;9,223670155949584;-93,63078707235938;86,82515945921202;-129,00173955504013
12:13:17.204;0;Wrist;1;60397;10,39;14,077163190099796;6,092886421552171;-2,792224026841029;6,092886421552171;14,077163190099796;-2,792224026841029;-86,42841883602405;157,99432355723746;-85,9401226844081
12:13:17.204;0;Wrist;1;60398;10,39;15,56419568468276;7,695962687307352;6,2627643665883355;7,695962687307352;15,56419568468276;6,2627643665883355;-83,13241981261635;182,89742728965118;-52,27820673238319
12:13:17.204;0;Wrist;1;60399;10,39;13,194275109103671;11,37227145451216;11,859175199133274;11,37227145451216;13,194275109103671;11,859175199133274;-70,43671987060152;190,71016571550646;-19,165623950926236
12:13:17.206;0;Wrist;1;60400;10,18;8,27498416852321;16,065456480605487;13,164366969817195;16,065456480605487;8,27498416852321;13,164366969817195;-60,54872280037843;189,1842402417066;0,18311105685598317
12:13:17.206;0;Wrist;1;60401;10,18;3,8222602008117925;19,811151463362528;16,567913220618305;19,811151463362528;3,8222602008117925;16,567913220618305;-43,64146855067599;173,28409680471205;-2,5940733054597613
12:13:17.206;0;Wrist;1;60402;10,18;1,8267892191457868;22,309080019531844;19,77765549180578;22,309080019531844;1,8267892191457868;19,77765549180578;-20,386364329966124;145,7564012573626;-19,531846064638202
12:13:17.206;0;Wrist;1;60403;10,18;1,1113864797280801;20,982354579302346;21,859261986144595;20,982354579302346;1,1113864797280801;21,859261986144595;-2,3194067201757864;108,31019013031404;-43,76354258857997
12:13:17.206;0;Wrist;1;60404;10,18;1,5037813148518326;20,13655316324351;21,25990134891812;20,13655316324351;1,5037813148518326;21,25990134891812;10,345774712363049;69,39909054841762;-68,91079439680166
12:13:17.207;0;Wrist;1;60405;9,97;4,367784756767479;19,850630970183417;20,381799905392622;19,850630970183417;4,367784756767479;20,381799905392622;2,5025177770317697;39,368877224036375;-92,77626880703147
12:13:17.208;0;Wrist;1;60406;9,97;7,632557145908994;18,75838496047853;23,20273445844905;18,75838496047853;7,632557145908994;23,20273445844905;-21,33243812372204;12,756736960966826;-108,18811609241004
12:13:17.208;0;Wrist;1;60407;9,97;10,37214270455031;16,0690462202826;28,915189062166203;16,0690462202826;10,37214270455031;28,915189062166203;-37,018951994384594;-16,20532853175451;-109,22574541459394
12:13:17.208;0;Wrist;1;60408;9,97;13,165562913907285;14,150138668477432;29,757402645954773;14,150138668477432;13,165562913907285;29,757402645954773;-39,00265511032441;-48,127689443647576;-90,91463972899564
12:13:17.209;0;Wrist;1;60409;9,97;15,939842295602283;13,812775620288706;26,09305665761284;13,812775620288706;15,939842295602283;26,09305665761284;-57,100131229590744;-76,75405133213295;-61,464278084658346
12:13:17.227;0;Mov;1;14066;11,01;-2,630720074694052;3,295876949369793;-9,806280899990844;3,295876949369793;-2,630720074694052;-9,806280899990844;-105,4719687490463;-24,262215033417768;-194,6165349284341
12:13:17.227;0;Mov;1;14067;11,01;-0,8733176671651357;2,6103823492385634;-12,030250518814661;2,6103823492385634;-0,8733176671651357;-12,030250518814661;-103,79345072786646;-7,5685903500473035;-211,03549302652058
12:13:17.227;0;Mov;1;14068;11,01;1,0862636665700247;1,6150395214697715;-14,114248901333658;1,6150395214697715;1,0862636665700247;-14,114248901333658;-100,49745170445875;12,421033356730858;-222,29682302316354
12:13:17.227;0;Mov;1;14069;11,01;3,1977783001953184;0;-15,484042634357738;0,23089083827192755;3,1977783001953184;-15,484042634357738;-101,38248847926268;35,00473036896878;-225,56230353709526
12:13:17.227;0;Mov;1;14070;11,01;4,407263309884946;-2,2682333788567766;-14,229096728415785;-2,2682333788567766;4,407263309884946;-14,229096728415785;-108,89004181035799;54,13983581041902;-218,97030549027986
12:13:17.255;0;Mov;1;14071;10,89;3,8354198774681842;-5,528220561082796;-8,775048066652424;-5,528220561082796;3,8354198774681842;-8,775048066652424;-124,85122226630452;54,84176152836695;-206,82393871883298
12:13:17.255;0;Mov;1;14072;10,89;2,5302285836359752;-9,687844286935027;-1,3853450594347971;-9,687844286935027;2,5302285836359752;-1,3853450594347971;-149,78484450819423;42,02398754844813;-196,4476454969939
12:13:17.255;0;Mov;1;14073;10,89;0,527579612777337;-15,077291940061647;7,392096087527086;-15,077291940061647;0,527579612777337;7,392096087527086;-170,6289864803003;7,019257179479355;-193,5178685872982
12:13:17.256;0;Mov;1;14074;10,89;0,7716299935911131;-18,881607257301553;9,315787415692618;-18,881607257301553;0,7716299935911131;9,315787415692618;-152,65358439893797;-55,635242774742885;-201,81890316476944
12:13:17.256;0;Mov;1;14075;10,89;9,331339457380901;-20,20713484603412;-1,587524104853969;-20,20713484603412;9,331339457380901;-1,587524104853969;-95,88915677358318;-121,7383342997528;-201,20853297524948
12:13:17.257;0;Mov;1;14076;10,66;22,536381878109072;-20,983550523392438;-14,51142918179876;-20,983550523392438;22,536381878109072;-14,51142918179876;-57,89361247596668;-149,9374370555742;-155,3697317423017
12:13:17.257;0;Mov;1;14077;10,66;28,626874980925933;-23,33433027130955;-19,00841738639485;-23,33433027130955;28,626874980925933;-19,00841738639485;-74,89242225409711;-130,86336863307596;-68,23938718832972
12:13:17.257;0;Mov;1;14078;10,66;21,72407643360698;-28,017944883571886;-9,00952845088046;-28,017944883571886;21,72407643360698;-9,00952845088046;-112,88796655171362;-120,51759392071291;22,705771050141912
12:13:17.257;0;Mov;1;14079;10,66;12,452553254799035;-30,78385074922941;-3,641615182576983;-30,78385074922941;12,452553254799035;-3,641615182576983;-119,78514969328899;-121,55522324289682;84,56678975798822
12:13:17.257;0;Mov;1;14080;10,66;10,478616061891538;-30,515873439741203;-11,10788293099765;-30,515873439741203;10,478616061891538;-11,10788293099765;-71,8405713064974;-119,84618671224098;109,65300454725791
12:13:17.259;0;Mov;1;14081;10,44;14,568852618488114;-30,147404400769066;-20,354283654286323;-30,147404400769066;14,568852618488114;-20,354283654286323;-18,219550157170325;-85,8790856654561;129,6121097445601
12:13:17.259;0;Mov;1;14082;10,44;13,060286454359568;-30,558940778832362;-20,737107837153232;-30,558940778832362;13,060286454359568;-20,737107837153232;-20,87466048158208;-34,058656575212865;155,03402813806574
12:13:17.259;0;Mov;1;14083;10,44;5,7507372127445295;-30,002649388103887;-15,930271881771294;-30,002649388103887;5,7507372127445295;-15,930271881771294;-43,610950041199985;6,073183385723441;161,35135959959715
12:13:17.261;0;Mov;1;14084;10,44;-21,04097491378521;-30,70010795922727;7,420807805871761;-30,70010795922727;-21,04097491378521;7,420807805871761;113,22367015594958;61,43375957518235;131,3211462752159
12:13:17.261;0;Mov;1;14085;10,44;-36,079985198522905;-35,59068575090792;-5,297329916531877;-35,59068575090792;-36,079985198522905;-5,297329916531877;495,31540879543445;103,51878414258248;42,3596911526841
12:13:17.262;0;Mov;1;14086;10,22;-10,574322107608264;-12,834180539872433;-18,82298692281869;-12,834180539872433;-10,574322107608264;-18,82298692281869;410,4434339426862;-29,511398663289285;-8,056886501663259
12:13:17.262;0;Mov;1;14087;10,22;39,19999923703726;25,086947233497117;21,706131550035096;25,086947233497117;39,19999923703726;21,706131550035096;201,0864589373455;-143,98632770775475;6,927701651051363
12:13:17.262;0;Mov;1;14088;10,22;0;25,667165135654773;-8,976030571916867;25,667165135654773;0,12441786092190694;-8,976030571916867;50,81331827753532;-10,010071108127079;50,11139255958739
12:13:17.262;0;Mov;1;14089;10,22;-19,111301004058962;-17,37662892544328;1,0419995488982818;-17,37662892544328;-19,111301004058962;1,0419995488982818;105,34989471114231;97,842341380047;86,00115970336009
12:13:17.263;0;Mov;1;14090;10,22;8,5501390499588;-8,798974578081607;5,345182939390241;-8,798974578081607;8,5501390499588;5,345182939390241;109,34781945249794;22,27851191747795;125,82781456953643
12:13:17.264;0;Wrist;1;60410;9,99;17,058406704916532;13,61179216132084;23,536509674367505;13,61179216132084;17,058406704916532;23,536509674367505;-98,39167455061495;-97,78130436109501;-29,3588061159093
12:13:17.264;0;Wrist;1;60411;9,99;16,66002952665792;13,092587435529648;22,835463270973847;13,092587435529648;16,66002952665792;22,835463270973847;-136,14307077242347;-110,69063386944181;-0,4272591326639607
12:13:17.264;0;Wrist;1;60412;9,99;15,451741653187659;11,818500701925718;22,982610171819207;11,818500701925718;15,451741653187659;22,982610171819207;-146,24469740897854;-124,57655568102054;22,370067445905942
12:13:17.264;0;Wrist;1;60413;9,99;14,74112388225959;10,531253814813684;23,20034257026887;10,531253814813684;14,74112388225959;23,20034257026887;-128,02514725180822;-150,36469618823816;39,70458082827235
12:13:17.264;0;Wrist;1;60414;9,99;14,736339152195807;9,095663129062777;22,707455290383617;9,095663129062777;14,736339152195807;22,707455290383617;-99,39878536332286;-187,47520371105074;51,51524399548326
12:13:17.287;0;Mov;1;14096;10,12;-0,9582568185026094;0,766844727069155;0,6304635880802332;0,766844727069155;-0,9582568185026094;0,6304635880802332;1,1902218695638904;-11,993774224066897;-6,378368480483413
12:13:17.288;0;Mov;1;14097;10,12;0;-0,5383465071565905;0;-0,5383465071565905;-0,058619954491657;0,42828457246429336;-3,9979247413556322;-3,295999023407697;3,0823694570757163
12:13:17.288;0;Mov;1;14098;10,12;0;-0,7907712384983367;0;-0,7907712384983367;0,17825251908837397;0,33018586368335523;-6,40888698995941;-2,6245918149357585;5,890072328867458
12:13:17.288;0;Mov;1;14099;10,12;0,7022431223677785;0;0,7895748771629993;-0,10168767357402264;0,7022431223677785;0,7895748771629993;-8,911404766991181;-4,516739402447585;3,3875545518356884
12:13:17.288;0;Mov;1;14100;10,12;0;0;0,6161076693014313;-0,05144199882766007;-0,17346720786156805;0,6161076693014313;-10,406811731315043;-0,7629627368999298;-4,0284432508316295
12:13:17.293;0;Wrist;1;60415;9,91;14,70762695699942;7,835932493057039;18,885195089571827;7,835932493057039;14,70762695699942;18,885195089571827;-74,92294076357311;-226,63045136875516;61,64738914151433
12:13:17.293;0;Wrist;1;60416;9,91;15,268704031495101;6,913565382091739;14,568852618488114;6,913565382091739;15,268704031495101;14,568852618488114;-57,34427930539872;-262,45918149357584;73,82427442243721
12:13:17.293;0;Wrist;1;60417;9,91;16,10134624774926;5,829694795831172;13,233753662221137;5,829694795831172;16,10134624774926;13,233753662221137;-48,40235602893155;-293,28287606433304;88,41212195196387
12:13:17.293;0;Wrist;1;60418;9,91;15,51993240150151;4,1608206236457415;11,619910084841456;4,1608206236457415;15,51993240150151;11,619910084841456;-43,94665364543596;-321,9397564622944;107,45567186498612
12:13:17.294;0;Wrist;1;60419;9,91;13,740996086001159;2,1091220301675464;8,387439153721733;2,1091220301675464;13,740996086001159;8,387439153721733;-31,86132389294107;-349,2843409527879;125,30899990844448
12:13:17.345;0;Mov;1;14101;10,14;-1,4080752691351055;0,5993591470648824;0,7512924469550157;0,5993591470648824;-1,4080752691351055;0,7512924469550157;-10,620441297647023;3,6317026276436657;-7,293923764763329
12:13:17.345;0;Mov;1;14102;10,14;-1,5121555461668752;0,5096347292054506;0,835035236957152;0,5096347292054506;-1,5121555461668752;0,835035236957152;-7,293923764763329;11,780144657734915;-4,577776421399578
12:13:17.345;0;Mov;1;14103;10,14;-1,575560849139378;0;0,7213843076685384;0,45580004868655966;-1,575560849139378;0,7213843076685384;1,7090365306558428;19,623401593066195;-0,3051850947599719
12:13:17.345;0;Mov;1;14104;10,14;-1,1532578747291482;0,8266610056421094;1,118564409314249;0,8266610056421094;-1,1532578747291482;1,118564409314249;13,336588641010772;25,29984435560167;4,272591326639607
12:13:17.345;0;Mov;1;14105;10,14;-0,7297585985900449;0,7752189583841975;1,076693014313181;0,7752189583841975;-0,7297585985900449;1,076693014313181;21,485030671102024;36,04235969115268;6,164738914151433
12:13:17.370;0;Wrist;1;60420;10,02;13,249305703909421;0;6,33334747993408;-0,19978636745334483;13,249305703909421;6,33334747993408;-7,38547929319132;-370,79989013336586;138,76766258735924
12:13:17.370;0;Wrist;1;60421;10,02;15,734074106570635;-1,915317335276345;5,393035962248604;-1,915317335276345;15,734074106570635;5,393035962248604;14,526810510574663;-384,28907132175664;155,76647236548968
12:13:17.370;0;Wrist;1;60422;10,02;15,481649792474135;-3,309036626026185;6,5750054361095005;-3,309036626026185;15,481649792474135;6,5750054361095005;21,668141727958005;-391,00314340647606;180,91372417371136
12:13:17.370;0;Wrist;1;60423;10,02;11,530185666982025;-5,393035962248604;9,22008136997589;-5,393035962248604;11,530185666982025;9,22008136997589;34,24176763206885;-402,294991912595;204,2909024323252
12:13:17.370;0;Wrist;1;60424;10,02;7,55120719779046;-7,173168221839045;9,437812814722129;-7,173168221839045;7,55120719779046;9,437812814722129;67,65953550828577;-419,38535721915343;218,4209723197119
12:13:17.376;0;Mov;1;14106;10,06;0;1,3255287808618428;1,30878019901883;1,3255287808618428;-0,34813074725524157;1,30878019901883;24,719992675557727;48,982207708975494;6,74459059419538
12:13:17.376;0;Mov;1;14107;10,06;0;3,0781457430494097;2,1725273331400494;3,0781457430494097;-0,1435590685750908;2,1725273331400494;30,21332438123722;64,60768456068605;7,904293954283273
12:13:17.376;0;Mov;1;14108;10,06;0;1,6449476607562488;1,662892544328135;1,6449476607562488;-0,15671865582178715;1,662892544328135;37,324137089144564;88,71730704672383;8,57570116275521
12:13:17.376;0;Mov;1;14109;10,06;0;2,661824396496475;3,206152531510361;2,661824396496475;-0,2524247015385144;3,206152531510361;26,917325357829522;115,1463362529374;17,48710592974639
12:13:17.376;0;Mov;1;14110;10,06;0,5742362743003632;4,487417313913388;2,6402904885250402;4,487417313913388;0,5742362743003632;2,6402904885250402;10,895107882930997;154,75936155278177;31,189916684469132
12:13:17.443;0;Wrist;1;60425;10,03;5,1980346079897455;-8,338389233069856;8,24388008514664;-8,338389233069856;5,1980346079897455;8,24388008514664;96,8047120578631;-431,98950163274026;222,8766747032075
12:13:17.443;0;Wrist;1;60426;10,03;3,604528994491409;-9,873274750511184;8,456825846125675;-9,873274750511184;3,604528994491409;8,456825846125675;99,76500747703483;-436,44520401623583;219,94689779351177
12:13:17.443;0;Wrist;1;60427;10,03;1,4367869874797814;-11,464387760551775;8,893484679708243;-11,464387760551775;1,4367869874797814;8,893484679708243;83,92590105899228;-436,38416699728384;211,12704855494857
12:13:17.443;0;Wrist;1;60428;10,03;-1,365007453192236;-13,19068632312998;8,247468871120335;-13,19068632312998;-1,365007453192236;8,247468871120335;72,8782006286813;-436,7198706015198;195,07431257057405
12:13:17.443;0;Wrist;1;60429;10,03;-2,5374066324350717;-15,433796769615771;6,689852786339915;-15,433796769615771;-2,5374066324350717;6,689852786339915;80,81301309244057;-435,40757469405196;172,8263191625721
12:13:17.444;0;Wrist;1;60430;9,47;0;-18,454517883846552;5,023370979186376;-18,454517883846552;-0,1961974026602603;5,023370979186376;91,95226905117954;-425,67217017120885;154,1795098727378
12:13:17.444;0;Wrist;1;60431;9,47;3,256398157826472;-21,536254081850643;5,4863491660817285;-21,536254081850643;3,256398157826472;5,4863491660817285;85,39078951384015;-405,7130649739067;150,60884426404616
12:13:17.444;0;Wrist;1;60432;9,47;3,9383039719840083;-25,293912320322274;8,730783829767754;-25,293912320322274;3,9383039719840083;8,730783829767754;65,55375835444197;-381,05410931730097;160,77150791955322
12:13:17.445;0;Wrist;1;60433;9,47;0,8733176671651357;-29,692800683614614;11,133006340220344;-29,692800683614614;0,8733176671651357;11,133006340220344;60,24353770561846;-366,0084841456343;169,6218756675924
12:13:17.445;0;Wrist;1;60434;9,47;-3,0661824873348187;-33,59880367442854;9,082503929258095;-33,59880367442854;-3,0661824873348187;9,082503929258095;80,20264290292062;-362,7735221411786;165,2577288125248
12:13:17.501;0;Mov;1;14111;10,27;0;5,748344370860927;5,361931402020326;5,748344370860927;0,09211707347283471;5,361931402020326;-7,782219916379284;198,00408948026978;50,23346659749138
12:13:17.501;0;Mov;1;14112;10,27;0;7,26648142567217;6,948259205145421;7,26648142567217;0,14714804826979125;6,948259205145421;-19,684438612018187;289,71221045564135;71,7184972685934
12:13:17.501;0;Mov;1;14113;10,27;-1,0192694584109012;10,202264282662435;13,737406346324045;10,202264282662435;-1,0192694584109012;13,737406346324045;-48,8601336710715;423,963133640553;95,21774956511123
12:13:17.501;0;Mov;1;14114;10,27;-2,5063020722067932;4,849903771324809;18,63516457106235;4,849903771324809;-2,5063020722067932;18,63516457106235;-127,1095919675283;623,1879634998627;127,59788811914426
12:13:17.501;0;Mov;1;14115;10,27;-3,7145908993804744;3,818671414838099;21,30655842768639;3,818671414838099;-3,7145908993804744;21,30655842768639;-191,1984618671224;830,5612353892636;153,78276924954986
12:13:17.502;0;Mov;1;14116;10,1;1,189147641872921;6,328562273018586;21,946592608417006;6,328562273018586;1,189147641872921;21,946592608417006;-194,03668324839015;996,2462233344523;170,14069032868434
12:13:17.502;0;Mov;1;14117;10,1;9,094467184972686;-2,6522537442396312;12,024268890957366;-2,6522537442396312;9,094467184972686;12,024268890957366;-97,44560075685904;1000;147,22128971221045
12:13:17.502;0;Mov;1;14118;10,1;-12,737278550065614;-22,891689809869685;6,930314321573534;-22,891689809869685;-12,737278550065614;6,930314321573534;4,7303689687795645;963,0115665150914;105,38041322061831
12:13:17.502;0;Mov;1;14119;10,1;-26,01290360728782;-4,243366992706076;34,14672154911954;-4,243366992706076;-26,01290360728782;34,14672154911954;-31,86132389294107;381,11514633625296;142,5824762718589
12:13:17.502;0;Mov;1;14120;10,1;-20,09826960051271;5,61914139988403;35,84670171208838;5,61914139988403;-20,09826960051271;35,84670171208838;29,78606524857326;119,96826075014496;115,08529923398541
12:13:17.526;0;Mov;1;14121;10,08;-6,430249946592609;9,578979041413618;10,94279019287698;9,578979041413618;-6,430249946592609;10,94279019287698;52,79702139347514;98,51374858851894;49,745170445875424
12:13:17.527;0;Mov;1;14122;10,08;0,7895748771629993;12,012305635242775;0,6711386813524277;12,012305635242775;0,7895748771629993;0,6711386813524277;-2,9297769096957307;112,9795220801416;48,219244972075565
12:13:17.527;0;Mov;1;14123;10,08;-0,5455244963492233;9,507199507126073;12,432215529343546;9,507199507126073;-0,5455244963492233;12,432215529343546;-57,71050141911069;158,23847163304544;72,75612659077731
12:13:17.527;0;Mov;1;14124;10,08;-1,9236915665913876;7,30954924161504;25,181457335123753;7,30954924161504;-1,9236915665913876;25,181457335123753;-93,4781945249794;161,53447065645315;92,10486159855952
12:13:17.527;0;Mov;1;14125;10,08;-2,7072848158970917;6,48647743919187;28,36368335520493;6,48647743919187;-2,7072848158970917;28,36368335520493;-106,05182042909024;118,5033722952971;98,72737815485091
12:13:17.564;0;Wrist;1;60435;9,94;-5,7842341380047;-36,43529313028352;5,339201311532944;-36,43529313028352;-5,7842341380047;5,339201311532944;104,77004303109837;-355,14389477217935;144,50514236884672
12:13:17.564;0;Wrist;1;60436;9,94;-6,68387115848262;-38,42836924344615;3,9538560136722922;-38,42836924344615;-6,68387115848262;3,9538560136722922;112,88796655171362;-332,6822717978454;113,55937376018555
12:13:17.564;0;Wrist;1;60437;9,94;-6,73890223014008;-39,201197088534194;6,446998409222694;-39,201197088534194;-6,73890223014008;6,446998409222694;104,77004303109837;-303,3539841914121;80,4467909787286
12:13:17.564;0;Wrist;1;60438;9,94;-7,1384748756370735;-39,201197088534194;8,990386669515061;-39,201197088534194;-7,1384748756370735;8,990386669515061;99,00204474013489;-268,4713278603473;58,87020477919858
12:13:17.564;0;Wrist;1;60439;9,94;-8,259432126834925;-39,201197088534194;4,596283036286508;-39,201197088534194;-8,259432126834925;4,596283036286508;86,21478926969206;-226,84408093508713;47,48680074465163
12:13:17.565;0;Wrist;1;60440;9,93;-10,717881176183354;-39,201197088534194;-2,816150538270211;-39,201197088534194;-10,717881176183354;-2,816150538270211;44,5570238349559;-175,45091097750785;28,290658284249396
12:13:17.565;0;Wrist;1;60441;9,93;-11,52540093691824;-39,201197088534194;-5,577270004882961;-39,201197088534194;-11,52540093691824;-5,577270004882961;-7,141331217383343;-113,28470717490158;-8,880886257515183
12:13:17.565;0;Wrist;1;60442;9,93;-7,522495479445784;-36,38385036774804;-3,657167224265267;-36,38385036774804;-7,522495479445784;-3,657167224265267;-39,0942106387524;-58,99227881710257;-52,70546586504715
12:13:17.565;0;Wrist;1;60443;9,93;-2,714462864696188;-32,32471694082461;-3,6870756019775994;-32,32471694082461;-2,714462864696188;-3,6870756019775994;-49,04324472792749;-19,501327555162206;-80,81301309244057
12:13:17.565;0;Wrist;1;60444;9,93;1,1460799451429793;-28,76923810541093;-5,255458521530809;-28,76923810541093;1,1460799451429793;-5,255458521530809;-39,76561784722434;5,7374797814874725;-89,1445661793878
12:13:17.586;0;Mov;1;14126;10,06;-3,336552161854915;6,975774502548296;25,259218497268595;6,975774502548296;-3,336552161854915;25,259218497268595;-88,90041810357982;64,94338816492203;100,55848872341075
12:13:17.586;0;Mov;1;14127;10,06;-4,804443590350047;10,156804101687674;21,80064165166173;10,156804101687674;-4,804443590350047;21,80064165166173;-53,2547990356151;23,987548448133793;101,38248847926268
12:13:17.586;0;Mov;1;14128;10,06;-6,353685205389569;12,910745757927183;21,762358088930938;12,910745757927183;-6,353685205389569;21,762358088930938;-11,352885525070956;2,1362956633198036;104,73952452162236
12:13:17.586;0;Mov;1;14129;10,06;-6,569023808252205;14,186028435621203;23,333134327219458;14,186028435621203;-6,569023808252205;23,333134327219458;15,930661946470535;-17,303994872890406;105,77715384380627
12:13:17.587;0;Mov;1;14130;10,06;-6,726938974425489;14,266182439649647;24,418200857570117;14,266182439649647;-6,726938974425489;24,418200857570117;16,022217474898525;-45,31998657185583;101,16885891293069
12:13:17.628;0;Wrist;1;60445;10,1;5,359538560136723;-26,64695616016114;-7,798846781823176;-26,64695616016114;5,359538560136723;-7,798846781823176;-16,113773003326518;31,067842646565143;-80,11108737449263
12:13:17.628;0;Wrist;1;60446;10,1;7,023627525406659;-25,39440404980621;-11,284938924832911;-25,39440404980621;7,023627525406659;-11,284938924832911;9,826960051271096;61,83050019837031;-56,550798059022796
12:13:17.628;0;Wrist;1;60447;10,1;6,284298512985626;-23,99470313119907;-13,901303140354624;-23,99470313119907;6,284298512985626;-13,901303140354624;43,36680196539201;99,9481185338908;-31,647694326609088
12:13:17.629;0;Wrist;1;60448;10,1;7,5571888256477555;-26,302413632618183;-14,977996154667807;-26,302413632618183;7,5571888256477555;-14,977996154667807;78,85982848597675;134,31196020386363;-13,48918118839076
12:13:17.629;0;Wrist;1;60449;10,1;-7,149241710409863;-30,36992248298593;-37,49763100070192;-30,36992248298593;-7,149241710409863;-37,49763100070192;72,8171636097293;333,1705679494614;-49,43998535111545
12:13:17.646;0;Mov;1;14131;10,2;-7,431574640644551;12,515958319345684;26,094254509109774;12,515958319345684;-7,431574640644551;26,094254509109774;2,4414807580797753;-82,00323496200446;96,37745292519914
12:13:17.646;0;Mov;1;14132;10,2;-7,71510399182104;9,952232810449537;26,10262802514725;9,952232810449537;-7,71510399182104;26,10262802514725;-10,315256202887051;-125,0343333231605;90,85360271004365
12:13:17.646;0;Mov;1;14133;10,2;-8,749925611133152;7,554795983764153;26,905362102114932;7,554795983764153;-8,749925611133152;26,905362102114932;-18,03643910031434;-165,34928434095278;85,97064119388409
12:13:17.647;0;Mov;1;14134;10,2;-12,219269768364514;5,321256427961059;31,55906857509079;5,321256427961059;-12,219269768364514;31,55906857509079;-8,239997558519242;-203,43638416699727;78,85982848597675
12:13:17.647;0;Mov;1;14135;10,2;-16,225764488662374;5,261440149388104;34,96500671407208;5,261440149388104;-16,225764488662374;34,96500671407208;21,39347514267403;-244,51429792168952;56,58131656849879
12:13:17.654;0;Wrist;1;60450;9,6;-3,9000213629566334;-9,805084955900753;19,0574663533433;-9,805084955900753;-3,9000213629566334;19,0574663533433;-16,20532853175451;323,58775597399824;-151,24973296304208
12:13:17.654;0;Wrist;1;60451;9,6;25,470967360454114;15,279470389416181;30,255073702200384;15,279470389416181;25,470967360454114;30,255073702200384;-51,85094759971923;462,23334452345347;-115,1768547624134
12:13:17.654;0;Wrist;1;60452;9,6;-10,347020249031038;-19,24050492873928;14,364281327249977;-19,24050492873928;-10,347020249031038;14,364281327249977;-246,52851954710533;588,9461958677938;44,70961638233589
12:13:17.654;0;Wrist;1;60453;9,6;-4,313950106051821;13,167955755790887;-1,074300410855434;13,167955755790887;-4,313950106051821;-1,074300410855434;-288,33887752922146;523,1788079470199;10,52888576921903
12:13:17.654;0;Wrist;1;60454;9,6;-2,194061241111484;-21,12710959196753;20,595940656758323;-21,12710959196753;-2,194061241111484;20,595940656758323;-182,07342753379925;565,7216101565599;-86,03167821283608
12:13:17.680;0;Mov;1;14136;10,1;-15,945823923459578;3,758855136265145;31,322197256385998;3,758855136265145;-15,945823923459578;31,322197256385998;71,29123813592945;-289,1933957945494;22,461622974333935
12:13:17.680;0;Mov;1;14137;10,1;-10,695150608844264;2,097158774452956;23,382183294167913;2,097158774452956;-10,695150608844264;23,382183294167913;121,31107516708884;-345,0117496261483;3,204443494979705
12:13:17.680;0;Mov;1;14138;10,1;-6,371630088961455;1,6640888460570087;14,902627834406568;1,6640888460570087;-6,371630088961455;14,902627834406568;112,55226294747764;-377,9717398602252;3,936887722403638
12:13:17.680;0;Mov;1;14139;10,1;-6,59534316156499;-0,5108310309343241;8,852809228797266;-0,5108310309343241;-6,59534316156499;8,852809228797266;56,67287209692679;-380,90151676992093;8,728293710135198
12:13:17.680;0;Mov;1;14140;10,1;-10,124503120517593;-2,3854733325449384;7,772527428510392;-2,3854733325449384;-10,124503120517593;7,772527428510392;13,519699697866756;-374,52314828943753;13,214514603106783
12:13:17.685;0;Wrist;1;60455;9,71;7,929246173741874;-25,531981490524004;17,19000251777703;-25,531981490524004;7,929246173741874;17,19000251777703;-100,40589617603077;311,50242622150336;-86,03167821283608
12:13:17.685;0;Wrist;1;60456;9,71;-4,201495597705008;-3,679897553178503;8,630293053987243;-3,679897553178503;-4,201495597705008;8,630293053987243;-71,13864558854945;108,09656056398205;-43,12265388958403
12:13:17.685;0;Wrist;1;60457;9,71;-1,2405896891308328;0,6699423200170904;3,1248023449659716;0,6699423200170904;-1,2405896891308328;3,1248023449659716;-42,05450605792413;94,5158238471633;-32,013916440321054
12:13:17.685;0;Wrist;1;60458;9,71;-0,515616357062746;0;2,9609057893612474;-0,12322153684060945;-0,515616357062746;2,9609057893612474;-29,48088015381329;90,79256569109165;-30,152287362285225
12:13:17.685;0;Wrist;1;60459;9,71;-0,9690237128818628;-3,4406324388866847;3,6368297372356335;-3,4406324388866847;-0,9690237128818628;3,6368297372356335;-31,006805627613147;70,22309030426953;-30,88473158970916
12:13:17.735;0;Mov;1;14141;10,2;-14,833241142002624;-2,884341048158208;10,088613353373821;-2,884341048158208;-14,833241142002624;10,088613353373821;6,775109103671377;-366,1610766930143;3,69273964659566
12:13:17.735;0;Mov;1;14142;10,2;-14,702841273232215;-4,341465403454695;12,218072870571001;-4,341465403454695;-14,702841273232215;12,218072870571001;27,253028962065493;-364,2384105960265;-18,341624195074314
12:13:17.735;0;Mov;1;14143;10,2;-10,685580195013275;-5,296133495590075;11,33638168736839;-5,296133495590075;-10,685580195013275;11,33638168736839;25,29984435560167;-376,2321848200934;-44,09924619281594
12:13:17.735;0;Mov;1;14144;10,2;-7,624183153019806;-6,7125828768272955;9,157872249519334;-6,7125828768272955;-7,624183153019806;9,157872249519334;-18,82992034669027;-386,7000335703604;-66,43879512924589
12:13:17.735;0;Mov;1;14145;10,2;-7,197094733268227;-8,842042870876186;8,346763702810755;-8,842042870876186;-7,197094733268227;8,346763702810755;-65,64531388286996;-390,1486251411481;-79,07345805230872
12:13:17.753;0;Wrist;1;60460;9,97;-0,7572740748123111;-1,0635334568697166;2,4907497920926542;-1,0635334568697166;-0,7572740748123111;2,4907497920926542;-30,4269539475692;43,64146855067599;-18,433179723502302
12:13:17.753;0;Wrist;1;60461;9,97;0;0,6663533552240058;1,5839350804544206;0,6663533552240058;0,43306986878948334;1,5839350804544206;-28,809472945341348;32,990508743552965;-12,054811243018891
12:13:17.753;0;Wrist;1;60462;9,97;0,6065370766510514;0;1,2142704550309762;-0,40794702582819603;0,6065370766510514;1,2142704550309762;-32,10547196874904;24,506363109225745;-14,435254982146672
12:13:17.753;0;Wrist;1;60463;9,97;0,9738090390102847;0;0,9235633530877102;0,12561418500320445;0,9738090390102847;0,9235633530877102;-35,43198950163274;15,411847285378583;-17,761772515030366
12:13:17.753;0;Wrist;1;60464;9,97;0,8733176671651357;1,2322153386028627;0,9690237128818628;1,2322153386028627;0,8733176671651357;0,9690237128818628;-40,74221015045625;10,589922788171025;-23,957029938657797
12:13:17.833;0;Wrist;1;60465;10,07;0,8266610056421094;1,0144841322824794;1,2728904318750571;1,0144841322824794;0,8266610056421094;1,2728904318750571;-46,784875026703695;11,07821893978698;-32,013916440321054
12:13:17.833;0;Wrist;1;60466;10,07;-2,1091220301675464;1,0025208765678884;1,6593036391415144;1,0025208765678884;-2,1091220301675464;1,6593036391415144;-44,83169042023987;11,749626148258919;-32,34962004455702
12:13:17.833;0;Wrist;1;60467;10,07;-1,5612048707541124;0;1,8112369390316476;0,22371287888252664;-1,5612048707541124;1,8112369390316476;-33,35673085726493;14,221625415814692;-22,7973265785699
12:13:17.833;0;Wrist;1;60468;10,07;-1,0731041091265603;-1,1975218731879635;4,975517956328013;-1,1975218731879635;-1,0731041091265603;4,975517956328013;-20,599993896298106;26,001770073549608;-9,857478560747094
12:13:17.833;0;Wrist;1;60469;10,07;-0,9462935627880185;1,3733818037202064;3,895236156041139;1,3733818037202064;-0,9462935627880185;3,895236156041139;2,2583697012237924;80,20264290292062;1,3428144169438765
12:13:17.835;0;Wrist;1;60470;9,36;-1,3051911746192817;3,4226875553147984;2,0301644470809044;3,4226875553147984;-1,3051911746192817;2,0301644470809044;0,3051850947599719;123,26425977355267;1,7090365306558428
12:13:17.835;0;Wrist;1;60471;9,36;-2,2993377006592;3,756462294381542;2,032557288964507;3,756462294381542;-2,2993377006592;2,032557288964507;11,658070619830928;131,04647968993194;-4,608294930875576
12:13:17.836;0;Wrist;1;60472;9,36;-1,3638111514633626;5,1944458220160525;2,220380355998413;5,1944458220160525;-1,3638111514633626;2,220380355998413;30,18280587176122;165,2577288125248;-5,4322946867275
12:13:17.836;0;Wrist;1;60473;9,36;2,019397612308115;9,104037598803675;2,3172825842310862;9,104037598803675;2,019397612308115;2,3172825842310862;46,23554185613575;182,50068666646322;-22,095400860621968
12:13:17.836;0;Wrist;1;60474;9,36;1,3662038741340372;11,323221533860286;6,682674737540818;11,323221533860286;1,3662038741340372;6,682674737540818;64,72975859859004;209,7842341380047;-65,85894344920194
12:13:17.856;0;Mov;1;14146;10,31;-7,271267109439375;-10,617389446699423;8,225935201574755;-10,617389446699423;-7,271267109439375;8,225935201574755;-79,95849482711264;-389,2025513473922;-83,22397534104434
12:13:17.856;0;Mov;1;14147;10,31;-6,718564504684591;-11,868746566667683;8,424524864955595;-11,868746566667683;-6,718564504684591;8,424524864955595;-70,68086794640949;-387,1272927030244;-81,24027222510452
12:13:17.856;0;Mov;1;14148;10,31;-6,1790215765862;-12,551848086489455;6,169451162755211;-12,551848086489455;-6,1790215765862;6,169451162755211;-59,48057496871853;-384,19751579332865;-78,06634723960082
12:13:17.856;0;Mov;1;14149;10,31;-5,918222792748802;-12,48006855220191;1,9117283108767968;-12,48006855220191;-5,918222792748802;1,9117283108767968;-61,250648518326365;-377,3308511612293;-76,20471816156498
12:13:17.856;0;Mov;1;14150;10,31;-7,723477984710227;-12,056568918424023;-1,8160222651600695;-12,056568918424023;-7,723477984710227;-1,8160222651600695;-74,64827417828913;-363,53648487807857;-81,63701284829249
12:13:17.857;0;Mov;1;14151;10,2;-10,786071924497207;-11,723990600299082;-4,814014004181036;-11,723990600299082;-10,786071924497207;-4,814014004181036;-79,50071718497269;-344,2793053987243;-102,2675252540666
12:13:17.857;0;Mov;1;14152;10,2;-11,911813905758843;-11,306473548081911;-5,358342139194922;-11,306473548081911;-11,911813905758843;-5,358342139194922;-71,26071962645345;-323,1299783318583;-137,48588518936734
12:13:17.857;0;Mov;1;14153;10,2;-10,004870563371686;-11,453621402630695;-2,858021933271279;-11,453621402630695;-10,004870563371686;-2,858021933271279;-78,3104953154088;-304,239020966216;-181,18839075899533
12:13:17.857;0;Mov;1;14154;10,2;-6,682674737540818;-12,54586645863216;0;-12,54586645863216;-6,682674737540818;-0,2895108002143925;-118,59492782372509;-294,74776451918086;-225,65385906552325
12:13:17.857;0;Mov;1;14155;10,2;-3,1415510460219123;-14,59876075777459;2,0720358420819727;-14,59876075777459;-3,1415510460219123;2,0720358420819727;-168,15698721274453;-299,1119113742485;-261,024811548204
12:13:17.888;0;Mov;1;14156;9,56;0,6807092740028077;-17,81328775902585;4,079470198675497;-17,81328775902585;0,6807092740028077;4,079470198675497;-196,05090487380596;-313,9744254890591;-282,47932370983
12:13:17.888;0;Mov;1;14157;9,56;6,774791997283852;-21,366374706259347;2,4907497920926542;-21,366374706259347;6,774791997283852;2,4907497920926542;-189,79461043122654;-335,2153080843532;-282,601397747734
12:13:17.888;0;Mov;1;14158;9,56;13,952744949186682;-23,514975051118505;0;-23,514975051118505;13,952744949186682;-0,07536851398224585;-171,7886898403882;-352,2141178624836;-253,1815546128727
12:13:17.888;0;Mov;1;14159;9,56;16,850245674001282;-25,955479216895046;1,650929288613544;-25,955479216895046;16,850245674001282;1,650929288613544;-169,10306100650044;-357,7379680776391;-198,37031159398174
12:13:17.888;0;Mov;1;14160;9,56;15,054561372722556;-29,112582781456954;5,341593676564837;-29,112582781456954;15,054561372722556;5,341593676564837;-164,28113650929288;-356,08996856593524;-140,29358806115908
12:13:17.915;0;Mov;1;14161;9,66;13,548387096774194;-32,53168202764977;7,4267894337290565;-32,53168202764977;13,548387096774194;7,4267894337290565;-136,29566331980345;-351,57322916348767;-90,06012146366771
12:13:17.915;0;Mov;1;14162;9,66;14,461183317056795;-36,40418713950011;8,0321302682577;-36,40418713950011;14,461183317056795;8,0321302682577;-104,98367259743034;-342,9364909817804;-44,953764458143866
12:13:17.915;0;Mov;1;14163;9,66;15,18974597155675;-39,201197088534194;5,932578413495285;-39,201197088534194;15,18974597155675;5,932578413495285;-92,98989837336345;-324,9305703909421;-1,403851435895871
12:13:17.915;0;Mov;1;14164;9,66;13,189489425336467;-39,201197088534194;0,6029481118579668;-39,201197088534194;13,189489425336467;0,6029481118579668;-84,7193823053682;-289,71221045564135;39,49095126194037
12:13:17.915;0;Mov;1;14165;9,66;8,871951010162663;-39,201197088534194;-2,155778632084109;-39,201197088534194;8,871951010162663;-2,155778632084109;-57,679982909634695;-238,74629963072604;74,61775566881313
12:13:18.013;0;Wrist;1;60475;10,06;0,8266610056421094;12,090066797387616;14,979193052461317;12,090066797387616;0,8266610056421094;14,979193052461317;103,51878414258248;355,84582049012727;-109,40885647144994
12:13:18.014;0;Wrist;1;60476;10,06;6,313010231330302;9,754839091158788;18,19372005371258;9,754839091158788;6,313010231330302;18,19372005371258;208,38038270210882;558,1835383159887;-212,0120853297525
12:13:18.014;0;Wrist;1;60477;10,06;0;16,10134624774926;15,578551782280954;16,10134624774926;-0,28352917235709707;15,578551782280954;243,5377056184576;774,7734000671408;-300,39368877224035
12:13:18.014;0;Wrist;1;60478;10,06;0,579021600428785;13,383294358653524;12,484854235969115;13,383294358653524;0,579021600428785;12,484854235969115;248,8174077578051;912,381359294412;-350,26093325601977
12:13:18.014;0;Wrist;1;60479;10,06;3,1212135589922787;7,674428540910062;16,492543946653644;7,674428540910062;3,1212135589922787;16,492543946653644;250,46540726950894;1000;-397,8698080385754
12:13:18.015;0;Wrist;1;60480;9,84;31,853366191595203;-18,008289590136418;33,991199224829856;-18,008289590136418;31,853366191595203;33,991199224829856;194,09772026734214;1000;-351,1459700308237
12:13:18.016;0;Wrist;1;60481;9,84;37,91155735953856;20,092287972655416;36,358726004821925;20,092287972655416;37,91155735953856;36,358726004821925;97,872859889523;280,70925016022215;-116,3060396130253
12:13:18.016;0;Wrist;1;60482;9,84;24,418200857570117;25,26759201330607;31,13676679280984;25,26759201330607;24,418200857570117;31,13676679280984;107,33359782708213;-55,574205755790885;15,778069399090548
12:13:18.016;0;Wrist;1;60483;9,84;-2,2909634693441574;17,349114581743827;7,4782312425611135;17,349114581743827;-2,2909634693441574;7,4782312425611135;43,54991302224799;-27,06991790520951;85,32975249488815
12:13:18.016;0;Wrist;1;60484;9,84;-11,673744735557115;13,712283890804773;5,757915261543626;13,712283890804773;-11,673744735557115;5,757915261543626;-17,09036530655843;-42,57332071901608;54,87228003784295
12:13:18.043;0;Wrist;1;60485;9,94;-8,279769852290414;13,481393246253853;22,032729194006166;13,481393246253853;-8,279769852290414;22,032729194006166;7,782219916379284;-58,19879757072665;-14,34369945371868
12:13:18.043;0;Wrist;1;60486;9,94;-1,9823115434354686;13,913266396069217;28,555095446638386;13,913266396069217;-1,9823115434354686;28,555095446638386;73,06131168553728;-104,09863582262642;-64,97390667439802
12:13:18.043;0;Wrist;1;60487;9,94;3,840205084383679;15,015082819605091;22,612947096163822;15,015082819605091;3,840205084383679;22,612947096163822;106,63167210913419;-163,91491439558092;-82,67464217047639
12:13:18.043;0;Wrist;1;60488;9,94;6,150309858241523;16,610980559709464;15,073702200384533;16,610980559709464;6,150309858241523;15,073702200384533;91,15878780480361;-199,86571855830562;-84,53627124851222
12:13:18.043;0;Wrist;1;60489;9,94;6,960222460860011;18,883999145481734;11,485922383800775;18,883999145481734;6,960222460860011;11,485922383800775;56,45924253059481;-213,78215887936034;-77,0897549363689
12:13:18.045;0;Wrist;1;60490;9,95;8,426917706839198;20,23943678090762;12,41427064577166;20,23943678090762;8,426917706839198;12,41427064577166;22,766808069093905;-216,1626026184881;-64,60768456068605
12:13:18.045;0;Wrist;1;60491;9,95;8,940140804773096;19,673574022644733;14,578423986022523;19,673574022644733;8,940140804773096;14,578423986022523;-3,936887722403638;-225,19608142338328;-48,70754112369152
12:13:18.045;0;Wrist;1;60492;9,95;6,3118138103885;18,51553201391644;9,066951887569811;18,51553201391644;6,3118138103885;9,066951887569811;-13,733329264198737;-237,12881862849818;-23,346659749137853
12:13:18.045;0;Wrist;1;60493;9,95;3,963426665929136;17,952061143833735;2,6606282139805293;17,952061143833735;3,963426665929136;2,6606282139805293;-13,519699697866756;-233,34452345347452;-5,188146610919523
12:13:18.045;0;Wrist;1;60494;9,95;3,386797788171026;16,38607249671926;5,525827719199194;16,38607249671926;3,386797788171026;5,525827719199194;-21,454512161626027;-220,09949034089175;-4,364146855067599
12:13:18.067;0;Mov;1;14166;10,2;4,130912484359264;-39,201197088534194;-4,09382629627369;-39,201197088534194;4,130912484359264;-4,09382629627369;-25,11673329874569;-181,6156498916593;90,97567674794763
12:13:18.067;0;Mov;1;14167;10,2;0;-39,201197088534194;-9,745268677327799;-39,201197088534194;0,38760947919209876;-9,745268677327799;-11,383404034546952;-123,17270424512466;74,49568163090915
12:13:18.067;0;Mov;1;14168;10,2;-1,0276436897259438;-39,201197088534194;-15,473275322733238;-39,201197088534194;-1,0276436897259438;-15,473275322733238;-15,991698965422529;-54,292428357799004;33,26517532883694
12:13:18.067;0;Mov;1;14169;10,2;1,1843623157444991;-39,201197088534194;-15,584533410138249;-39,201197088534194;1,1843623157444991;-15,584533410138249;-20,050660725730154;11,108737449262978;-10,162663655507066
12:13:18.067;0;Mov;1;14170;10,2;4,474257637256996;-39,201197088534194;-11,23947874385815;-39,201197088534194;4,474257637256996;-11,23947874385815;-36,37806329538866;63,661610766930146;-35,9202856532487
12:13:18.069;0;Mov;1;14171;10,09;7,017645897549364;-39,201197088534194;-9,36244449446089;-39,201197088534194;7,017645897549364;-9,36244449446089;-45,503097628711814;110,08026367992187;-39,67406231879635
12:13:18.069;0;Mov;1;14172;10,09;11,16171758171331;-37,41867198706015;-8,300106624042481;-37,41867198706015;11,16171758171331;-8,300106624042481;-30,4269539475692;152,073732718894;-24,14014099551378
12:13:18.069;0;Mov;1;14173;10,09;13,282802629169591;-30,17492065187536;-6,021106887264626;-30,17492065187536;13,282802629169591;-6,021106887264626;-5,645924253059481;194,25031281472212;8,789330729087192
12:13:18.069;0;Mov;1;14174;10,09;14,591583185827204;-4,438367870113224;-3,8784876934110537;-4,438367870113224;14,591583185827204;-3,8784876934110537;9,12503433332316;208,99075289162877;66,49983214819788
12:13:18.069;0;Mov;1;14175;10,09;-3,3461225756859037;18,958172475356303;0;18,958172475356303;-3,3461225756859037;-0,3947874385814997;16,20532853175451;217,65800958281199;164,0980254524369
12:13:18.070;0;Mov;1;14176;10,09;-14,699252487258523;0;2,0493057515945923;0,06699423051154745;-14,699252487258523;2,0493057515945923;77,88323618274484;369,609668263802;248,9089632862331
12:13:18.070;0;Mov;1;14177;10,09;-31,612903225806452;-34,80709250160222;29,905747398297066;-34,80709250160222;-31,612903225806452;29,905747398297066;100,61952574236274;524,4300668355357;162,0227668080691
12:13:18.070;0;Mov;1;14178;10,09;-7,010467848750267;-21,62478064821314;25,193420590838343;-21,62478064821314;-7,010467848750267;25,193420590838343;332,4076052125614;497,9705191198462;-6,775109103671377
12:13:18.071;0;Mov;1;14179;10,09;29,971545304727318;13,328263763847774;11,982397495956297;13,328263763847774;29,971545304727318;11,982397495956297;340,64760277108064;403,08847315897094;-7,446516312143315
12:13:18.071;0;Mov;1;14180;10,09;1,3590258253349405;-23,916941969054232;20,5050202948088;-23,916941969054232;1,3590258253349405;20,5050202948088;188,60438856166266;423,3222449415571;66,89657277138585
12:13:18.095;0;Wrist;1;60495;9,91;4,340269459364604;16,0582789086581;9,25118545335246;16,0582789086581;4,340269459364604;9,25118545335246;-37,65984069338054;-204,65712454603718;-0,24414807580797754
12:13:18.095;0;Wrist;1;60496;9,91;7,914890076143681;17,06797807245094;15,107200079348125;17,06797807245094;7,914890076143681;15,107200079348125;-64,1499069185461;-187,0174260689108;9,186071352275155
12:13:18.096;0;Wrist;1;60497;9,91;11,562486648152104;15,394318216498306;22,29113513595996;15,394318216498306;11,562486648152104;22,29113513595996;-95,49241615039521;-177,98394726401563;31,891842402417065
12:13:18.096;0;Wrist;1;60498;9,91;9,540696432386243;12,066140285958435;18,388719977416304;12,066140285958435;9,540696432386243;18,388719977416304;-115,2073732718894;-193,82305368205817;73,12234870448927
12:13:18.096;0;Wrist;1;60499;9,91;5,160948419904172;10,09579187902463;10,512112987151708;10,09579187902463;5,160948419904172;10,512112987151708;-108,52381969664602;-213,1107516708884;101,80974761192664
12:13:18.131;0;Mov;1;14181;9,21;-16,541594821008943;-28,157916119876706;8,78102969450972;-28,157916119876706;-16,541594821008943;8,78102969450972;86,85567796868801;238,0138554033021;79,83642078920866
12:13:18.132;0;Mov;1;14182;9,21;10,698739394817958;0;6,260372001556444;-0,4294808741931669;10,698739394817958;6,260372001556444;66,46931363872189;80,93508713034456;57,466353343302714
12:13:18.132;0;Mov;1;14183;9,21;0,8170903533852657;-1,062337155140843;1,3147618268761254;-1,062337155140843;0,8170903533852657;1,3147618268761254;43,54991302224799;73,8853114413892;33,967101046784876
12:13:18.132;0;Mov;1;14184;9,21;0;-2,006237935651723;1,5312967314676351;-2,006237935651723;0,3098483170472579;1,5312967314676351;27,893917661061433;58,7176122318186;24,65895565660573
12:13:18.132;0;Mov;1;14185;9,21;-1,0910489926984466;-2,349583565401166;1,4260201527069918;-2,349583565401166;-1,0910489926984466;1,4260201527069918;15,472884304330577;43,64146855067599;20,020142216254158
12:13:18.163;0;Wrist;1;60500;9,46;3,8222602008117925;7,798846781823176;9,904379787591173;7,798846781823176;3,8222602008117925;9,904379787591173;-82,79671620838039;-216,86452833643605;102,48115482039857
12:13:18.163;0;Wrist;1;60501;9,46;5,556932279427473;5,763896889400922;13,200256736960966;5,763896889400922;5,556932279427473;13,200256736960966;-56,12353892635883;-221,59489730521562;96,95730460524308
12:13:18.163;0;Wrist;1;60502;9,46;7,740226447340312;4,2146552743614;15,913522942289498;4,2146552743614;7,740226447340312;15,913522942289498;-42,085024567400126;-234,59578234199043;101,26041444135869
12:13:18.163;0;Wrist;1;60503;9,46;6,451784092989898;1,878231147190771;18,266695532090214;1,878231147190771;6,451784092989898;18,266695532090214;-38,27021088290048;-254,2802209540086;107,94396801660207
12:13:18.163;0;Wrist;1;60504;9,46;4,03879522461623;-1,4798548034226509;17,46515739921262;-1,4798548034226509;4,03879522461623;17,46515739921262;-24,53688161870174;-281,5332499160741;108,46278267769402
12:13:18.196;0;Wrist;1;60505;9,58;2,584063234351634;-5,373894657734916;15,111984809411908;-5,373894657734916;2,584063234351634;15,111984809411908;-6,40888698995941;-311,0751670888394;101,62663655507065
12:13:18.196;0;Wrist;1;60506;9,58;1,5157445705664236;-8,346763702810755;14,035291795098727;-8,346763702810755;1,5157445705664236;14,035291795098727;6,073183385723441;-333,7199011200293;89,17508468886379
12:13:18.196;0;Wrist;1;60507;9,58;1,861482684560686;-9,973766479995117;13,234949606311227;-9,973766479995117;1,861482684560686;13,234949606311227;9,704886013367107;-346,93441572313606;75,86901455732902
12:13:18.196;0;Wrist;1;60508;9,58;4,495791783654286;-10,863833086642048;11,119846186712241;-10,863833086642048;4,495791783654286;11,119846186712241;6,256294442579424;-353,2517471846675;67,78160954618977
12:13:18.196;0;Wrist;1;60509;9,58;7,807220774712363;-12,33531353953673;7,817987609485153;-12,33531353953673;7,807220774712363;7,817987609485153;6,256294442579424;-351,69530320139165;74,86190374462112
12:13:18.220;0;Mov;1;14186;9,56;0;-2,019397612308115;1,2860499893185218;-2,019397612308115;0,020337535459885328;1,2860499893185218;14,862514114810633;31,189916684469132;21,21036408581805
12:13:18.220;0;Mov;1;14187;9,56;0;0;0,9127963991019928;0,08852809377813425;0,00598162785729545;0,9127963991019928;15,747550889614551;24,170659504989775;15,411847285378583
12:13:18.220;0;Mov;1;14188;9,56;-2,3842769116031373;0,5072420661412397;0,9977355504394665;0,5072420661412397;-2,3842769116031373;0,9977355504394665;17,05984679708243;30,30487990966521;14,618366039002655
12:13:18.220;0;Mov;1;14189;9,56;-2,512283700064089;-0,6208929954298532;1,6808374279000213;-0,6208929954298532;-2,512283700064089;1,6808374279000213;25,025177770317697;37,50724814600055;23,25510422070986
12:13:18.220;0;Mov;1;14190;9,56;-0,6005554487937559;-0,5515061242065188;1,667677870456557;-0,5515061242065188;-0,6005554487937559;1,667677870456557;33,753471480452895;37,141026032288586;26,612140263069552
12:13:18.222;0;Mov;1;14191;9,56;-1,3733818037202064;-1,365007453192236;1,9452254745628224;-1,365007453192236;-1,3733818037202064;1,9452254745628224;38,39228492080447;38,0565813165685;24,14014099551378
12:13:18.222;0;Mov;1;14192;9,56;-0,9642384463599047;0;2,3340312852870264;0,17466353939367352;-0,9642384463599047;2,3340312852870264;49,287392803735464;39,61302529984435;23,37717825861385
12:13:18.222;0;Mov;1;14193;9,56;-1,6270027771843623;-1,3721855019913327;1,2298227351451154;-1,3721855019913327;-1,6270027771843623;1,2298227351451154;63,35642567217017;49,92828150273141;24,079103976561786
12:13:18.222;0;Mov;1;14194;9,56;2,204828075884274;0,6735312848101749;2,38188430814539;0,6735312848101749;2,204828075884274;2,38188430814539;73,00027466658528;43,58043153172399;23,957029938657797
12:13:18.222;0;Mov;1;14195;9,56;0;0,8015381328775902;1,8698569158757286;0,8015381328775902;0,2703695851104007;1,8698569158757286;68,42249824518571;60,45716727195044;20,53895687734611
12:13:18.227;0;Wrist;1;60510;9,7;9,624439222388379;-13,84148686178167;3,6404187616351815;-13,84148686178167;9,624439222388379;3,6404187616351815;18,646809289834284;-342,75337992492445;102,45063631092258
12:13:18.228;0;Wrist;1;60511;9,7;11,331596003601184;-15,523521187475204;2,5027130478072452;-15,523521187475204;11,331596003601184;2,5027130478072452;35,21835993530076;-321,6956083864864;137,54692220831936
12:13:18.228;0;Wrist;1;60512;9,7;11,41414284951323;-17,10147404400769;3,5076265278328806;-17,10147404400769;11,41414284951323;3,5076265278328806;51,42368846705527;-303,3234656819361;174,32172612689595
12:13:18.228;0;Wrist;1;60513;9,7;7,957957892086551;-18,279854731894893;2,38188430814539;-18,279854731894893;7,957957892086551;2,38188430814539;74,37360759300516;-296,24317148350474;207,28171636097292
12:13:18.228;0;Wrist;1;60514;9,7;3,751677087466048;-19,059860148930326;0,8398205630855738;-19,059860148930326;3,751677087466048;0,8398205630855738;100,07019257179479;-291,97058015686514;224,73830378124333
12:13:18.275;0;Mov;1;14196;9,72;2,1390301694540237;5,394231906338694;4,14885736793115;5,394231906338694;2,1390301694540237;4,14885736793115;51,51524399548326;104,46485793633839;27,680288094729452
12:13:18.276;0;Mov;1;14197;9,72;-1,8913908238471633;6,639606921597949;4,002905457472457;6,639606921597949;-1,8913908238471633;4,002905457472457;36,927396465956605;204,2909024323252;27,61925107577746
12:13:18.276;0;Mov;1;14198;9,72;-3,4896816442609944;6,831019013031404;4,486220892971588;6,831019013031404;-3,4896816442609944;4,486220892971588;37,141026032288586;293,771172215949;40,711691640980256
12:13:18.276;0;Mov;1;14199;9,72;-2,5206579313791315;4,351036294137394;8,735569513534958;4,351036294137394;-2,5206579313791315;8,735569513534958;28,71791741691336;327,76879177220985;63,81420331431013
12:13:18.276;0;Mov;1;14200;9,72;-1,1999145958586384;7,17795342875454;14,415723136082034;7,17795342875454;-1,1999145958586384;14,415723136082034;-0,6103701895199438;399,51780755027926;104,15967284157841
12:13:18.284;0;Wrist;1;60515;9,92;2,1605640774254584;-19,30630283516953;1,7597948917737358;-19,30630283516953;2,1605640774254584;1,7597948917737358;115,02426221503342;-285,56169316690574;227,2103030487991
12:13:18.284;0;Wrist;1;60516;9,92;1,749028057000946;-19,399615085299235;3,7947449034089176;-19,399615085299235;1,749028057000946;3,7947449034089176;111,60618915372173;-276,2840662862026;227,1492660298471
12:13:18.284;0;Wrist;1;60517;9,92;-0,818286714720603;-20,20354701376385;3,932322344126713;-20,20354701376385;-0,818286714720603;3,932322344126713;99,9481185338908;-271,1874752037111;226,1421552171392
12:13:18.284;0;Wrist;1;60518;9,92;-4,627387596514787;-20,96440969573046;1,567186498611408;-20,96440969573046;-4,627387596514787;1,567186498611408;94,72945341349528;-270,5465865047151;213,69060335093235
12:13:18.284;0;Wrist;1;60519;9,92;-7,634949987792596;-21,020636234626302;-0,8769066319582202;-21,020636234626302;-7,634949987792596;-0,8769066319582202;91,92175054170355;-268,74599444563125;182,04290902432325
12:13:18.343;0;Wrist;1;60520;9,71;-9,20931405835139;-20,739499725333413;-0,7249733320680868;-20,739499725333413;-9,20931405835139;-0,7249733320680868;87,09982604449598;-266,8538468581194;133,24381237220373
12:13:18.343;0;Wrist;1;60521;9,71;-8,16492202520829;-20,66772019104587;0,8242683425778985;-20,66772019104587;-8,16492202520829;0,8242683425778985;84,62782677694021;-265,4194769127476;78,98190252388073
12:13:18.343;0;Wrist;1;60522;9,71;-5,622730185857723;-21,68818666646321;1,4619099198507646;-21,68818666646321;-5,622730185857723;1,4619099198507646;83,59019745475631;-262,1234778893399;33,845027008880884
12:13:18.343;0;Wrist;1;60523;9,71;-3,084127370906705;-23,06994270149846;3,679897553178503;-23,06994270149846;-3,084127370906705;3,679897553178503;83,7733085116123;-255,2873317667165;4,943998535111545
12:13:18.343;0;Wrist;1;60524;9,71;-1,369792779320658;-24,493570131534774;7,180346270638142;-24,493570131534774;-1,369792779320658;7,180346270638142;83,92590105899228;-247,9323709830012;-6,836146122623371
12:13:18.411;0;Wrist;1;60525;9,87;-2,7706901188695943;-26,425635929441206;5,649049539170507;-26,425635929441206;-2,7706901188695943;5,649049539170507;79,89745780816065;-239,66185491500596;-3,967406231879635
12:13:18.411;0;Wrist;1;60526;9,87;-4,805640011291849;-28,649605548265022;1,3709890810495315;-28,649605548265022;-4,805640011291849;1,3709890810495315;72,7256080813013;-217,44438001647998;-3,7232581560716573
12:13:18.411;0;Wrist;1;60527;9,87;-4,648921266060365;-29,647341456343273;-0,6675496569528794;-29,647341456343273;-4,648921266060365;-0,6675496569528794;55,39109469893491;-174,23017059846796;-12,17688528092288
12:13:18.411;0;Wrist;1;60528;9,87;-4,866652710806604;-31,951464125492112;1,2932279189046907;-31,951464125492112;-4,866652710806604;1,2932279189046907;32,563249610889;-129,2764061403241;-23,407696768089846
12:13:18.411;0;Wrist;1;60529;9,87;-2,141422772911771;-35,454306161687065;1,880623869861446;-35,454306161687065;-2,141422772911771;1,880623869861446;21,820734275337994;-90,91463972899564;-36,19495223853267
12:13:18.456;0;Mov;1;14201;10,44;-3,9299295022431107;3,5865841109195227;20,21551026947844;3,5865841109195227;-3,9299295022431107;20,21551026947844;-60,30457472457045;595,2330088198493;162,11432233649708
12:13:18.458;0;Mov;1;14202;10,44;-2,062465428250984;5,41098084582049;18,20568330942717;5,41098084582049;-2,062465428250984;18,20568330942717;-86,947233497116;797,6317636646626;203,07016205328532
12:13:18.458;0;Mov;1;14203;10,44;2,1378337485122225;8,745139927365948;21,794660023804436;8,745139927365948;2,1378337485122225;21,794660023804436;-127,50633259071627;934,3546861171301;222,26630451368754
12:13:18.458;0;Mov;1;14204;10,44;0;0;17,51779610583819;-0,14236275194460127;0,42349924633587144;17,51779610583819;-126,46870326853237;984,3745231482894;212,28675191503646
12:13:18.458;0;Mov;1;14205;10,44;-10,406836527603993;-22,999359111301004;16,514078569902647;-22,999359111301004;-10,406836527603993;16,514078569902647;-123,9356669820246;841,3953062532426;191,07638782921842
12:13:18.460;0;Mov;1;14206;10,44;-17,94368762779626;0;36,66857661671804;0,34573808419103064;-17,94368762779626;36,66857661671804;-58,35139011810663;365,03189184240244;191,1984618671224
12:13:18.460;0;Mov;1;14207;10,44;-15,10241439558092;8,606366542558062;36,82768868068484;8,606366542558062;-15,10241439558092;36,82768868068484;-37,50724814600055;150,63936277352215;134,37299722281563
12:13:18.460;0;Mov;1;14208;10,44;-10,210638752403332;13,501730971709343;24,177739799188206;13,501730971709343;-10,210638752403332;24,177739799188206;-59,63316751609852;55,14694662312693;73,9463484603412
12:13:18.460;0;Mov;1;14209;10,44;-5,615552137058626;15,379962118900114;7,809613616595965;15,379962118900114;-5,615552137058626;7,809613616595965;-37,04947050386059;4,913480025635548;58,6870937223426
12:13:18.460;0;Mov;1;14210;10,44;-4,079470198675497;13,31390766624958;6,273531201361125;13,31390766624958;-4,079470198675497;6,273531201361125;-7,72118289742729;10,315256202887051;67,78160954618977
12:13:18.461;0;Mov;1;14211;10,1;-4,970732749412519;11,234694013794366;12,264729949339275;11,234694013794366;-4,970732749412519;12,264729949339275;-5,3102206488235115;18,67732779931028;80,38575395977661
12:13:18.461;0;Mov;1;14212;10,1;-7,0523392437513355;10,717881176183354;16,4638336588641;10,717881176183354;-7,0523392437513355;16,4638336588641;-17,426068910794395;4,4557023834955904;87,83227027191992
12:13:18.461;0;Mov;1;14213;10,1;-9,741678937650684;10,42837019714957;19,31946203497421;10,42837019714957;-9,741678937650684;19,31946203497421;-17,548142948698384;-27,222510452589496;89,2666402172918
12:13:18.461;0;Mov;1;14214;10,1;-11,741935483870968;10,391284485915708;20,621065019684437;10,391284485915708;-11,741935483870968;20,621065019684437;1,3428144169438765;-69,49064607684561;84,93301187170019
12:13:18.461;0;Mov;1;14215;10,1;-11,806537446211127;10,341038621173741;19,01080927457503;10,341038621173741;-11,806537446211127;19,01080927457503;26,337473677785578;-114,2612994781335;74,46516312143315
12:13:18.493;0;Wrist;1;60530;10,2;0;-37,900791955320905;-0,5622730185857723;-37,900791955320905;0,47254860072634053;-0,5622730185857723;4,4557023834955904;-50,99642933439131;-42,3291726432081
12:13:18.493;0;Wrist;1;60531;10,2;-0,8625507727858821;-38,92484435560167;-3,0243110923337504;-38,92484435560167;-0,8625507727858821;-3,0243110923337504;-11,53599658192694;-7,263405255287331;-44,77065340128788
12:13:18.493;0;Wrist;1;60532;10,2;-1,3327067104480117;-38,938005462813194;-2,893911700415052;-38,938005462813194;-1,3327067104480117;-2,893911700415052;-12,115848261970886;36,71376689962462;-56,917020172734766
12:13:18.493;0;Wrist;1;60533;10,2;-0,5873958913502915;-38,046742912076176;-0,7058320871608631;-38,046742912076176;-0,5873958913502915;-0,7058320871608631;-11,749626148258919;75,89953306680502;-76,14368114261299
12:13:18.493;0;Wrist;1;60534;10,2;0;-36,25105670339061;0,5024567400128178;-36,25105670339061;-0,2631916257209998;0,5024567400128178;-14,618366039002655;107,36411633655813;-95,21774956511123
12:13:18.523;0;Wrist;1;60535;9,23;-1,0539628046128726;-32,17876598406934;-0,5263832514419996;-32,17876598406934;-1,0539628046128726;-0,5263832514419996;-11,993774224066897;135,25803399761955;-111,17893002105777
12:13:18.523;0;Wrist;1;60536;9,23;-1,13052766502884;-26,796496856593524;0;-26,796496856593524;-1,13052766502884;-0,08015381775824382;-3,173924985503708;163,36558122501296;-124,9427777947325
12:13:18.523;0;Wrist;1;60537;9,23;0,579021600428785;-20,43683050019837;0,6280709250160222;-20,43683050019837;0,579021600428785;0,6280709250160222;5,4322946867275;185,58305612353894;-127,84203619495224
12:13:18.523;0;Wrist;1;60538;9,23;0,7812005862414929;5,079598471785638;-9,456953642384105;5,079598471785638;0,7812005862414929;-9,456953642384105;0,7019257179479355;185,76616718039492;-119,93774224066897
12:13:18.523;0;Wrist;1;60539;9,23;0,9773980038033693;25,59777939695425;-22,41196363719596;25,59777939695425;0,9773980038033693;-22,41196363719596;-35,67613757744072;245,58244575334942;-175,75609607226784
12:13:18.549;0;Mov;1;14216;10,44;-9,891219634083072;11,069600321970276;14,74112388225959;11,069600321970276;-9,891219634083072;14,74112388225959;38,514358958708456;-151,0971404156621;60,67079683828242
12:13:18.549;0;Mov;1;14217;10,44;-8,431702436902981;11,917795533616138;12,620038834803308;11,917795533616138;-8,431702436902981;12,620038834803308;37,87347025971251;-174,32172612689595;48,55494857631153
12:13:18.549;0;Mov;1;14218;10,44;-7,984277245399334;12,761205061494797;13,615381900997955;12,761205061494797;-7,984277245399334;13,615381900997955;28,13806573686941;-191,68675801873837;43,58043153172399
12:13:18.549;0;Mov;1;14219;10,44;-8,493911557359539;12,639179662465285;15,403888630329295;12,639179662465285;-8,493911557359539;15,403888630329295;15,015106662190618;-205,3895687734611;41,35258033997619
12:13:18.549;0;Mov;1;14220;10,44;-9,00952845088046;10,796838282418287;16,62772949919126;10,796838282418287;-9,00952845088046;16,62772949919126;3,9979247413556322;-220,8319345683157;38,300729392376475
12:13:18.550;0;Mov;1;14221;9,85;-8,237898457289345;8,1661189230018;14,785388119144262;8,1661189230018;-8,237898457289345;14,785388119144262;-5,462813196203498;-240,2111880855739;33,53984191412091
12:13:18.550;0;Mov;1;14222;9,85;-8,070412877285074;8,074001663258766;10,988250373851741;8,074001663258766;-8,070412877285074;10,988250373851741;-16,449476607562488;-248,02392651142918;28,626361888485366
12:13:18.550;0;Mov;1;14223;9,85;-12,685836741233558;8,96765705587939;13,571117664113284;8,96765705587939;-12,685836741233558;13,571117664113284;-15,045625171666616;-222,17474898525955;21,698660237434005
12:13:18.550;0;Mov;1;14224;9,85;-20,890238273262735;5,678957678456984;24,583294549394207;5,678957678456984;-20,890238273262735;24,583294549394207;24,65895565660573;-185,73564867091892;7,690664387951292
12:13:18.550;0;Mov;1;14225;9,85;-22,219355601672415;1,2561418500320445;26,157658619953;1,2561418500320445;-22,219355601672415;26,157658619953;96,59108249153111;-187,44468520157474;-24,384289071321756
12:13:18.562;0;Wrist;1;60540;9,38;27,882761238441116;4,455116332743309;15,844136249885556;4,455116332743309;27,882761238441116;15,844136249885556;-49,47050386059145;520,6762901699881;-231,17770928067873
12:13:18.562;0;Wrist;1;60541;9,38;19,62572099978637;-29,443966109195227;30,103141117587818;-29,443966109195227;19,62572099978637;30,103141117587818;-189,2147587511826;799,7680593279824;-86,18427076021607
12:13:18.562;0;Wrist;1;60542;9,38;-22,273190252388073;-0,8625507727858821;3,873702248069704;-0,8625507727858821;-22,273190252388073;3,873702248069704;-330,05767998290963;561,6931669057283;-20,783104953154087
12:13:18.562;0;Wrist;1;60543;9,38;-6,810681764427625;-4,479042844172491;1,1436872224723045;-4,479042844172491;-6,810681764427625;1,1436872224723045;-229,65178380687888;530,0454725791193;-49,22635578478347
