Frecuencia (Hz);100
time;timespan;canal;id;sample;gap;accX;accY;accZ;rawAccX;rawAccY;rawAccZ;rawGirX;rawGirY;rawGirZ
12:07:53.522;0;Wrist;1;58910;16,01;-1,8160222651600695;9,070540673543505;9,111216124454481;9,070540673543505;-1,8160222651600695;9,111216124454481;55,787835322122866;119,63255714590899;-10,162663655507066
12:07:53.522;0;Wrist;1;58911;16,01;-1,3709890810495315;9,272720076601459;10,528861926633503;9,272720076601459;-1,3709890810495315;10,528861926633503;71,23020111697744;126,71285134434034;-19,440290536210213
12:07:53.522;0;Wrist;1;58912;16,01;-1,0719076881847591;12,378380878627889;13,049519142735068;12,378380878627889;-1,0719076881847591;13,049519142735068;97,44560075685904;157,84173100985748;-30,091250343333233
12:07:53.522;0;Wrist;1;58913;16,01;-1,350651594019898;14,622687269203771;14,977996154667807;14,622687269203771;-1,350651594019898;14,977996154667807;123,17270424512466;244,5753349406415;-40,2539139988403
12:07:53.522;0;Wrist;1;58914;16,01;0;7,739030503250222;14,570049516281625;7,739030503250222;-0,1961974026602603;14,570049516281625;160,8935819574572;338,9385662404248;-60,39613025299845
12:07:53.523;0;Wrist;1;58915;14,04;-0,5036531013481551;7,920871704000977;16,547576448866238;7,920871704000977;-0,5036531013481551;16,547576448866238;183,20261238441114;433,7900936918241;-68,75820184942168
12:07:53.523;0;Wrist;1;58916;14,04;-2,1497970042268135;7,19948757515183;13,362956633198035;7,19948757515183;-2,1497970042268135;13,362956633198035;179,87609485152745;531,4493240150151;-65,09598071230201
12:07:53.523;0;Wrist;1;58917;14,04;0;5,073616843928343;7,96872472685934;5,073616843928343;-0,00837427881394343;7,96872472685934;134,00677510910367;562,4561296426283;-43,06161687063204
12:07:53.523;0;Wrist;1;58918;14,04;1,4499466641361736;2,808972489471114;15,700577181310464;2,808972489471114;1,4499466641361736;15,700577181310464;106,11285744804223;523,1788079470199;-42,51228370006409
12:07:53.523;0;Wrist;1;58919;14,04;-4,624994754631183;-0,7812005862414929;14,096304017761772;-0,7812005862414929;-4,624994754631183;14,096304017761772;107,36411633655813;561,2964262825403;-83,25449385052035
12:07:53.524;0;Wrist;1;58920;12,5;5,138218329416791;-18,91390728476821;36,410168767357405;-18,91390728476821;5,138218329416791;36,410168767357405;29,633472701193273;460,21912289803765;-144,96292001098666
12:07:53.524;0;Wrist;1;58921;12,5;1,8112369390316476;7,285622730185858;39,19999923703726;7,285622730185858;1,8112369390316476;39,19999923703726;-25,818659016693626;195,654164250618;-127,71996215704824
12:07:53.524;0;Wrist;1;58922;12,5;1,1197607110431227;8,697286904507584;32,93963057344279;8,697286904507584;1,1197607110431227;32,93963057344279;-10,254219183935056;151,98217719046602;-119,32737205114903
12:07:53.524;0;Wrist;1;58923;12,5;0;8,702072588274788;23,550864818262276;8,702072588274788;0,3923948053205206;23,550864818262276;-5,188146610919523;135,9599597155675;-131,10751670888394
12:07:53.524;0;Wrist;1;58924;12,5;1,5073702200384533;8,852809228797266;21,221619693594164;8,852809228797266;1,5073702200384533;21,221619693594164;6,256294442579424;122,7149266029847;-143,13180944242683
12:07:53.527;0;Wrist;1;58925;11,31;3,7576587153233434;9,387566949980163;21,28263191625721;9,387566949980163;3,7576587153233434;21,28263191625721;12,024292733542893;116,2144840845973;-147,46543778801842
12:07:53.527;0;Wrist;1;58926;11,31;5,6992949270607625;9,766802346873378;21,07447088534196;9,766802346873378;5,6992949270607625;21,07447088534196;1,1902218695638904;114,38337351603748;-144,4135868404187
12:07:53.527;0;Wrist;1;58927;11,31;6,377611716818751;9,995300149540697;21,474044007690665;9,995300149540697;6,377611716818751;21,474044007690665;-22,309030426953946;110,9347819452498;-136,32618182927945
12:07:53.527;0;Wrist;1;58928;11,31;6,56304218039491;10,631745544297617;22,331810586870937;10,631745544297617;6,56304218039491;22,331810586870937;-43,58043153172399;111,14841151158177;-126,31611072115238
12:07:53.527;0;Wrist;1;58929;11,31;6,911173017059847;10,853065775017548;23,605897320474867;10,853065775017548;6,911173017059847;23,605897320474867;-58,6870937223426;115,3294473097934;-117,22159489730521
12:07:53.528;0;Mov;1;12591;11,54;13,725443090609454;-38,317114017151404;-26,516556291390728;-38,317114017151404;13,725443090609454;-26,516556291390728;-109,50041199987793;13,122959074678793;-13,824884792626728
12:07:53.528;0;Mov;1;12592;11,54;15,182568399609362;-38,973895229956966;-22,07220679342021;-38,973895229956966;15,182568399609362;-22,07220679342021;-21,759697256385998;67,99523911252174;-29,755546739097262
12:07:53.528;0;Mov;1;12593;11,54;23,45396282845546;-36,88391521958068;-23,128563035981323;-36,88391521958068;23,45396282845546;-23,128563035981323;2,288888210699789;93,4476760155034;-37,995544297616505
12:07:53.528;0;Mov;1;12594;11,54;29,01927053132725;-33,853621784112065;-24,944584109012116;-33,853621784112065;29,01927053132725;-24,944584109012116;-27,527695547349467;114,71907712027344;-5,951109347819452
12:07:53.528;0;Mov;1;12595;11,54;18,995258186590167;-29,076693014313182;-12,559025658436841;-29,076693014313182;18,995258186590167;-12,559025658436841;-50,721762749107334;137,69951475569934;60,8844264046144
12:07:53.528;0;Mov;1;12596;10,5;-25,259218497268595;-32,85229804376354;20,319589831232644;-32,85229804376354;-25,259218497268595;20,319589831232644;353,86211737418745;124,60707419049653;64,51612903225806
12:07:53.529;0;Mov;1;12597;10,5;-16,66242332224494;-24,755565813165685;-3,246827743995483;-24,755565813165685;-16,66242332224494;-3,246827743995483;529,0993987853633;64,24146244697408;8,911404766991181
12:07:53.529;0;Mov;1;12598;10,5;36,23311181981872;-3,9167700640125735;16,774878307443466;-3,9167700640125735;36,23311181981872;16,774878307443466;338,1450849940489;-41,474654377880185;-10,22370067445906
12:07:53.529;0;Mov;1;12599;10,5;8,459218688009278;17,674514374217964;-4,147660946989349;17,674514374217964;8,459218688009278;-4,147660946989349;-9,735404522843105;-43,671987060151984;15,655995361186559
12:07:53.529;0;Mov;1;12600;10,5;-21,72407643360698;-5,645460276345103;-0,8936552138012329;-5,645460276345103;-21,72407643360698;-0,8936552138012329;46,20502334665975;67,11020233771782;28,04651020844142
12:07:53.529;0;Mov;1;12601;9,64;4,6381544312875755;-13,834309289834284;5,18008972441786;-13,834309289834284;4,6381544312875755;5,18008972441786;102,93893246253853;28,68739890743736;98,75789666432692
12:07:53.529;0;Mov;1;12602;9,64;2,552958912549211;-2,848451281014435;0;-2,848451281014435;2,552958912549211;-0,23567614949873347;86,55049287392804;-24,323252052369764;97,65923032319101
12:07:53.530;0;Mov;1;12603;9,64;4,578338152714622;-4,334287831507309;0;-4,334287831507309;4,578338152714622;0,06101260637965598;80,4773094882046;-33,967101046784876;76,14368114261299
12:07:53.530;0;Mov;1;12604;9,64;4,190728762932219;-6,697030835139012;0;-6,697030835139012;4,190728762932219;0,4378551651146733;67,87316507461776;-43,671987060151984;49,806207464827416
12:07:53.530;0;Mov;1;12605;9,64;5,869173348948637;-1,6030762657551805;0,8087161220702231;-1,6030762657551805;5,869173348948637;0,8087161220702231;48,40235602893155;-53,68205816827906;19,928586687826165
12:07:53.531;0;Wrist;1;58930;10,36;7,424396591845454;11,323221533860286;25,57145908993805;11,323221533860286;7,424396591845454;25,57145908993805;-67,23227637562181;110,50752281258583;-106,35700552385022
12:07:53.531;0;Wrist;1;58931;10,36;8,17808217871639;12,147490234076967;27,210425122837;12,147490234076967;8,17808217871639;27,210425122837;-73,39701528977325;97,17093417157506;-93,02041688283944
12:07:53.531;0;Wrist;1;58932;10,36;8,36470858638264;13,135654774620807;27,22358432264168;13,135654774620807;8,36470858638264;27,22358432264168;-79,83642078920866;72,48146000549333;-77,36442152165289
12:07:53.531;0;Wrist;1;58933;10,36;7,620593890194403;13,9288184377575;26,267721716971344;13,9288184377575;7,620593890194403;26,267721716971344;-83,8038270210883;33,93658253730888;-60,33509323404645
12:07:53.531;0;Wrist;1;58934;10,36;6,6575518051698355;14,446828173162023;24,57731292153691;14,446828173162023;6,6575518051698355;24,57731292153691;-79,65330973235267;-5,798516800439467;-47,39524521622364
12:07:53.585;0;Wrist;1;58935;10,4;6,2555863177892395;14,371458899197362;23,50660153508103;14,371458899197362;6,2555863177892395;23,50660153508103;-70,46723838007752;-44,83169042023987;-39,826654866176334
12:07:53.585;0;Wrist;1;58936;10,4;6,536722827082126;14,121427426984466;23,09626110110782;14,121427426984466;6,536722827082126;23,09626110110782;-58,900723288674584;-86,33686330759606;-34,30280465102084
12:07:53.586;0;Wrist;1;58937;10,4;8,03332621234779;13,142833300271615;22,60098384044923;13,142833300271615;8,03332621234779;22,60098384044923;-49,9893185216834;-126,31611072115238;-26,306955168309578
12:07:53.586;0;Wrist;1;58938;10,4;9,056184575945311;11,847211943418683;21,66904583880123;11,847211943418683;9,056184575945311;21,66904583880123;-53,46842860194708;-169,4387646107364;-15,289773247474594
12:07:53.586;0;Wrist;1;58939;10,4;8,676949179052095;10,979875904110843;20,068361461226235;10,979875904110843;8,676949179052095;20,068361461226235;-61,64738914151433;-214,75875118259225;-3,6317026276436657
12:07:53.587;0;Wrist;1;58940;9,63;7,329886967070529;9,983336893826106;17,97718550675985;9,983336893826106;7,329886967070529;17,97718550675985;-57,161168248542744;-256,5385906552324;6,469924008911405
12:07:53.587;0;Wrist;1;58941;9,63;5,810553491317484;8,383849414044619;17,093100527970215;8,383849414044619;5,810553491317484;17,093100527970215;-35,06576738792077;-297,1587267677847;12,115848261970886
12:07:53.587;0;Wrist;1;58942;9,63;5,025763821069979;6,701816042054506;16,883743552964873;6,701816042054506;5,025763821069979;16,883743552964873;2,3194067201757864;-335,7341227454451;14,099551377910704
12:07:53.587;0;Wrist;1;58943;9,63;4,471865272225105;5,24708405178991;16,609784615619372;5,24708405178991;4,471865272225105;16,609784615619372;41,13895077364422;-371,47129734183784;13,58073671681875
12:07:53.587;0;Wrist;1;58944;9,63;4,435975505081331;3,3712455080568864;15,753215887936033;3,3712455080568864;4,435975505081331;15,753215887936033;73,58012634662923;-402,356028931547;10,193182164983062
12:07:53.619;0;Wrist;1;58945;9,4;5,896688646351512;1,1245460371715446;13,234949606311227;1,1245460371715446;5,896688646351512;13,234949606311227;101,1078218939787;-423,44431897946106;11,047700430310984
12:07:53.619;0;Wrist;1;58946;9,4;8,085964918973357;-0,6998504593035676;9,696218756675924;-0,6998504593035676;8,085964918973357;9,696218756675924;121,12796411023285;-429,94476149784845;24,53688161870174
12:07:53.619;0;Wrist;1;58947;9,4;10,266866245002594;-2,4823755607776117;7,280837523270363;-2,4823755607776117;10,266866245002594;7,280837523270363;128,75759147923216;-422,6813562425611;54,963835566270944
12:07:53.619;0;Wrist;1;58948;9,4;10,465455908383435;-4,364195970793786;6,961418404950102;-4,364195970793786;10,465455908383435;6,961418404950102;126,86544389172033;-406,14032410657063;100,31434064760278
12:07:53.619;0;Wrist;1;58949;9,4;8,654219565416424;-6,883657242805262;8,88989589373455;-6,883657242805262;8,654219565416424;8,88989589373455;122,31818597979675;-386,21173741874446;148,44203009125033
12:07:53.649;0;Wrist;1;58950;9,17;5,791412186803797;-9,801495216223639;11,31484706411939;-9,801495216223639;5,791412186803797;11,31484706411939;122,65388958403271;-370,86092715231786;188,45179601428265
12:07:53.649;0;Wrist;1;58951;9,17;2,4871610061189613;-13,469429990539263;13,310318880275886;-13,469429990539263;2,4871610061189613;13,310318880275886;132,3587755973998;-360,7593005157628;215,73534348582416
12:07:53.649;0;Wrist;1;58952;9,17;-0,6795129126674703;-17,7474898525956;14,960051271095919;-17,7474898525956;-0,6795129126674703;14,960051271095919;151,24973296304208;-357,6464125492111;230,3231910153508
12:07:53.650;0;Wrist;1;58953;9,17;-2,220380355998413;-21,84370899075289;15,473275322733238;-21,84370899075289;-2,220380355998413;15,473275322733238;170,3848384044923;-354,1062654499954;234,22956022827844
12:07:53.650;0;Wrist;1;58954;9,17;-1,936851124034852;-25,68511001922666;14,25780796990875;-25,68511001922666;-1,936851124034852;14,25780796990875;170,99520859401227;-341,74626911221657;229,95696890163885
12:07:53.699;0;Mov;1;12606;11,51;2,1198888649403362;-1,5695792212820825;0;-1,5695792212820825;2,1198888649403362;0,3900021422563097;21,820734275337994;-36,07287820062868;-0,18311105685598317
12:07:53.699;0;Mov;1;12607;11,51;0,9606494815668203;-2,3352274678029725;0;-2,3352274678029725;0,9606494815668203;0,40675069429609056;4,608294930875576;-18,55525376140629;-3,0823694570757163
12:07:53.699;0;Mov;1;12608;11,51;0,5622730185857723;-3,5806024830622274;0;-3,5806024830622274;0,5622730185857723;0,4270882409321879;-1,0376293221839046;-7,263405255287331;-3,6011841181676685
12:07:53.699;0;Mov;1;12609;11,51;-0,6986541575746941;-4,575945310831019;0,5108310309343241;-4,575945310831019;-0,6986541575746941;0,5108310309343241;2,7466658528397474;-3,326517532883694;-4,821924497207556
12:07:53.699;0;Mov;1;12610;11,51;-0,6125187045083468;-3,8378124809259315;0;-3,8378124809259315;-0,6125187045083468;0,41871395001068146;11,20029297769097;-1,586962492751854;-1,3733329264198737
12:07:53.700;0;Mov;1;12611;10,7;0;-3,1762443922238837;0,7393291912404248;-3,1762443922238837;0,2584063293958098;0,7393291912404248;17,91436506241035;4,058961760307627;1,0376293221839046
12:07:53.700;0;Mov;1;12612;10,7;0;-2,4093998439741204;0,8625507727858821;-2,4093998439741204;-0,1961974026602603;0,8625507727858821;24,23169652394177;15,808587908566546;-1,1291848506118962
12:07:53.700;0;Mov;1;12613;10,7;0;-3,228882860423597;0,7800042845126194;-3,228882860423597;0,3888058107242042;0,7800042845126194;31,678212836085084;29,938657795953247;-3,326517532883694
12:07:53.700;0;Mov;1;12614;10,7;0;-2,6534501651814324;0,7118137150181585;-2,6534501651814324;-0,027515489261180266;0,7118137150181585;38,69747001556444;39,948728904080326;-4,364146855067599
12:07:53.700;0;Mov;1;12615;10,7;0,5311685775704215;-2,140226590395825;1,303994872890408;-2,140226590395825;0,5311685775704215;1,303994872890408;34,54695272682882;47,242652668843654;0,3967406231879635
12:07:53.728;0;Mov;1;12616;10,36;0,7405255525757622;-2,154582449568163;1,118564409314249;-2,154582449568163;0,7405255525757622;1,118564409314249;24,750511185033723;65,43168431653798;5,890072328867458
12:07:53.728;0;Mov;1;12617;10,36;1,2944243398464919;-1,5576159655674917;1,6258064754554888;-1,5576159655674917;1,2944243398464919;1,6258064754554888;14,313180944242683;89,93804742576373;13,611255226294748
12:07:53.728;0;Mov;1;12618;10,36;1,2190557811593983;0;1,442768615337077;-0,42828457246429336;1,2190557811593983;1,442768615337077;8,056886501663259;123,72203741569261;19,47080904568621
12:07:53.728;0;Mov;1;12619;10,36;1,2417859908597064;0;1,5982909396267586;0,4857081879730369;1,2417859908597064;1,5982909396267586;-1,6785180211798456;150,45625171666615;23,59080782494583
12:07:53.728;0;Mov;1;12620;10,36;0;-1,4224311283074436;-0,9163854235015412;-1,4224311283074436;0,4857081879730369;-0,9163854235015412;-3,448591570787683;173,863948484756;26,337473677785578
12:07:53.730;0;Mov;1;12621;9,74;-0,5682546464430677;0;1,9739371929074985;0,0945097216354297;-0,5682546464430677;1,9739371929074985;12,634662923062837;182,19550157170323;31,922360911893062
12:07:53.730;0;Mov;1;12622;9,74;0;0;5,528220561082796;0,027515489261180266;-0,12681051653530992;5,528220561082796;12,634662923062837;231,05563524277474;39,55198828089236
12:07:53.730;0;Mov;1;12623;9,74;0;0,541935471949675;9,967784852137822;0,541935471949675;-0,4055543627639851;9,967784852137822;-20,020142216254158;320,5053865169225;55,87939085055086
12:07:53.730;0;Mov;1;12624;9,74;-2,219183935056612;-1,5097629427091281;8,960478530228583;-1,5097629427091281;-2,219183935056612;8,960478530228583;-42,20709860530412;441,20609149449143;75,0450148014771
12:07:53.730;0;Mov;1;12625;9,74;-0,774022656655324;0;6,912369438001648;-0,4952788104266488;-0,774022656655324;6,912369438001648;-5,951109347819452;531,6629535813471;84,17004913480025
12:07:53.731;0;Mov;1;12626;9,18;0;-0,5132236939985351;2,7467636074404127;-0,5132236939985351;0,1890194432708594;2,7467636074404127;41,383098849452196;568,8955351420636;84,29212317270425
12:07:53.731;0;Mov;1;12627;9,18;0;-3,817474993896298;4,400085737937559;-3,817474993896298;0,3361674915406507;4,400085737937559;48,79909665211951;541,6730246894741;82,5830866420484
12:07:53.731;0;Mov;1;12628;9,18;-3,1068574613940854;-5,394231906338694;4,487417313913388;-5,394231906338694;-3,1068574613940854;4,487417313913388;22,431104464857935;449,0493484298227;86,42841883602405
12:07:53.731;0;Mov;1;12629;9,18;3,565050202948088;-11,840034371471297;17,913779488509782;-11,840034371471297;3,565050202948088;17,913779488509782;-31,40354625080111;318,2775353251747;129,5510727256081
12:07:53.731;0;Mov;1;12630;9,18;-2,6833583044679097;-1,1424909207434308;31,40115436262093;-1,1424909207434308;-2,6833583044679097;31,40115436262093;1,3428144169438765;180,3643910031434;148,9608447523423
12:07:53.736;0;Wrist;1;58955;9,69;-2,726426120410779;-29,408076342051455;11,178466521195105;-29,408076342051455;-2,726426120410779;11,178466521195105;147,22128971221045;-317,7587206640828;222,26630451368754
12:07:53.736;0;Wrist;1;58956;9,69;-5,516257305368206;-30,957317957090975;5,60837456511124;-30,957317957090975;-5,516257305368206;5,60837456511124;115,48203985717338;-286,41621143223364;211,9815668202765
12:07:53.736;0;Wrist;1;58957;9,69;-7,923264545884579;-31,21691984313486;-0,825464644306772;-31,21691984313486;-7,923264545884579;-0,825464644306772;90,54841761528367;-243,14096499526963;194,79964598529008
12:07:53.736;0;Wrist;1;58958;9,69;-8,4185432370983;-31,38799516281625;-9,13035695211646;-31,38799516281625;-8,4185432370983;-9,13035695211646;59,26694540238655;-180,3338724936674;170,7205420087283
12:07:53.736;0;Wrist;1;58959;9,69;-10,105362292855617;-31,29228911709952;-18,87801751762444;-31,29228911709952;-10,105362292855617;-18,87801751762444;2,3499252296517836;-103,70189519943845;131,07699819940794
12:07:53.797;0;Wrist;1;58960;9,83;-13,311514824365977;-29,094637897885068;-23,928905224768823;-29,094637897885068;-13,311514824365977;-23,928905224768823;-54,658650471510974;-24,048585467085786;63,53953672902615
12:07:53.797;0;Wrist;1;58961;9,83;-12,32574217200232;-27,030976287118136;-14,208759002960296;-27,030976287118136;-12,32574217200232;-14,208759002960296;-78,1579027680288;37,44621112704856;-27,558214056825463
12:07:53.797;0;Wrist;1;58962;9,83;-6,930314321573534;-24,39547219763787;0;-24,39547219763787;-6,930314321573534;-0,028711815205179753;-43,36680196539201;61,28116702780236;-104,3427838984344
12:07:53.797;0;Wrist;1;58963;9,83;-2,379491704687643;-20,131767479476302;2,4153814718314157;-20,131767479476302;-2,379491704687643;2,4153814718314157;23,59080782494583;47,547837763603624;-137,45536667989134
12:07:53.797;0;Wrist;1;58964;9,83;2,8005982581560716;-11,566075434125798;-8,18884853663747;-11,566075434125798;2,8005982581560716;-8,18884853663747;51,82042909024323;47,42576372569964;-139,0728476821192
12:07:53.825;0;Wrist;1;58965;9,6;34,216109195226906;7,436359847560045;23,384577089754938;7,436359847560045;34,216109195226906;23,384577089754938;-186,62068544572284;215,39963988158817;9,002960295419172
12:07:53.825;0;Wrist;1;58966;9,6;-3,252809371852779;2,884341048158208;19,829096346934417;2,884341048158208;-3,252809371852779;19,829096346934417;-321,7566454054384;264,53444013794365;57,71050141911069
12:07:53.826;0;Wrist;1;58967;9,6;-39,201197088534194;17,809699926755577;25,50446523941771;17,809699926755577;-39,201197088534194;25,50446523941771;-175,78661458174383;208,62453077791682;-88,83938108462783
12:07:53.826;0;Wrist;1;58968;9,6;13,14881492812891;0,9295449809450056;2,8520403054139836;0,9295449809450056;13,14881492812891;2,8520403054139836;-40,92532120731224;364,9403363139744;-73,27494125186927
12:07:53.826;0;Wrist;1;58969;9,6;10,588678205206458;-4,541251964629048;5,548558286538285;-4,541251964629048;10,588678205206458;5,548558286538285;-103,97656178472243;189,94720297860653;-69,33805352946563
12:07:53.849;0;Mov;1;12631;9,98;-5,340397255623035;4,717112014374218;22,05426190984832;4,717112014374218;-5,340397255623035;22,05426190984832;-10,834070863979003;130,52766502884;138,1267738883633
12:07:53.849;0;Mov;1;12632;9,98;-5,676564836573382;7,8801967299417095;11,343559259315775;7,8801967299417095;-5,676564836573382;11,343559259315775;-3,051850947599719;109,31730094302195;138,46247749259925
12:07:53.849;0;Mov;1;12633;9,98;-5,286562604907377;9,465328112125004;9,793121700186163;9,465328112125004;-5,286562604907377;9,793121700186163;15,686513870662557;104,28174687948241;136,78395947141942
12:07:53.849;0;Mov;1;12634;9,98;-6,7843624111148415;10,135270432142095;13,219397564622945;10,135270432142095;-6,7843624111148415;13,219397564622945;31,647694326609088;99,24619281594286;132,20618305001983
12:07:53.849;0;Mov;1;12635;9,98;-8,030933370464187;11,113864558854946;16,10134624774926;11,113864558854946;-8,030933370464187;16,10134624774926;49,25687429425947;81,39286477248451;126,92648091067232
12:07:53.851;0;Mov;1;12636;9,48;-8,71523178807947;11,892673078096866;16,666011154515214;11,892673078096866;-8,71523178807947;16,666011154515214;61,31168553727836;54,13983581041902;115,87878048036134
12:07:53.851;0;Mov;1;12637;9,48;-9,094467184972686;11,751505897701957;16,87058435316019;11,751505897701957;-9,094467184972686;16,87058435316019;67,59849848933378;23,68236335337382;101,44352549821467
12:07:53.851;0;Mov;1;12638;9,48;-10,223798905911435;11,907028221991638;18,038197729422894;11,907028221991638;-10,223798905911435;18,038197729422894;76,14368114261299;-5,493331705679495;85,7264931180761
12:07:53.851;0;Mov;1;12639;9,48;-11,79935892056032;12,657124546037172;19,463021103549302;12,657124546037172;-11,79935892056032;19,463021103549302;93,41715750602741;-32,25806451612903;68,54457228308969
12:07:53.851;0;Mov;1;12640;9,48;-12,251570749534594;13,183507797479171;19,631702627643666;13,183507797479171;-12,251570749534594;19,631702627643666;113,80352183599354;-62,56294442579424;48,40235602893155
12:07:53.858;0;Wrist;1;58970;9,44;-20,64499153111362;5,041315862758263;15,053365428632466;5,041315862758263;-20,64499153111362;15,053365428632466;-88,13745536667989;43,09213538010803;-77,85271767326884
12:07:53.859;0;Wrist;1;58971;9,44;-2,062465428250984;3,470540578173162;7,750993758964812;3,470540578173162;-2,062465428250984;7,750993758964812;-16,266365550706503;78,1579027680288;-14,740440076906644
12:07:53.859;0;Wrist;1;58972;9,44;0;3,824653042695395;7,246144177068392;3,824653042695395;0,06220893046095347;7,246144177068392;10,773033845027008;55,574205755790885;8,087405011139255
12:07:53.859;0;Wrist;1;58973;9,44;0;5,8847253906369215;7,095407059694205;5,8847253906369215;-0,07656483806354335;7,095407059694205;26,85628833887753;28,04651020844142;8,02636799218726
12:07:53.859;0;Wrist;1;58974;9,44;0,947489864516892;5,393035962248604;7,039179567094943;5,393035962248604;0,947489864516892;7,039179567094943;31,95287942136906;14,801477095858639;-2,3499252296517836
12:07:53.885;0;Mov;1;12641;9,35;-10,35060903500473;13,528049371318705;18,432985168004393;13,528049371318705;-10,35060903500473;18,432985168004393;122,7149266029847;-102,0844141972106;28,68739890743736
12:07:53.885;0;Mov;1;12642;9,35;-7,2652854815820795;13,020807901242103;16,18030335398419;13,020807901242103;-7,2652854815820795;16,18030335398419;102,81685842463455;-146,7024750511185;20,41688283944212
12:07:53.886;0;Mov;1;12643;9,35;-5,017389351329081;11,588806001464889;12,12595656453139;11,588806001464889;-5,017389351329081;12,12595656453139;51,789910580767234;-191,83935056611836;23,8959929197058
12:07:53.886;0;Mov;1;12644;9,35;-4,652510052034058;10,37333960234382;7,813202402569659;10,37333960234382;-4,652510052034058;7,813202402569659;-9,03347880489517;-232,6120792260506;35,950804162724694
12:07:53.886;0;Mov;1;12645;9,35;-6,291476084933012;9,13035695211646;4,674044198431349;9,13035695211646;-6,291476084933012;4,674044198431349;-55,90990936002686;-261,20792260506;48,615985595263524
12:07:53.908;0;Mov;1;12646;9,12;-8,338389233069856;7,5882933858760335;2,7108738402966397;7,5882933858760335;-8,338389233069856;2,7108738402966397;-79,04293954283273;-280,9533982360301;53,59050263985107
12:07:53.908;0;Mov;1;12647;9,12;-9,360051652577289;6,810681764427625;1,3997009186071352;6,810681764427625;-9,360051652577289;1,3997009186071352;-89,0530106509598;-296,97561571092865;46,81539353617969
12:07:53.908;0;Mov;1;12648;9,12;-8,796581736198004;5,859602935117649;1,0216620618686483;5,859602935117649;-8,796581736198004;1,0216620618686483;-103,82396923734245;-308,4505752739036;29,11465804010132
12:07:53.908;0;Mov;1;12649;9,12;-7,843110541856135;4,121341593676565;2,153386028626362;4,121341593676565;-7,843110541856135;2,153386028626362;-130,80233161412397;-316,9347209082308;6,2868129520554215
12:07:53.908;0;Mov;1;12650;9,12;-6,664729853968932;2,568510954237495;4,635761589403973;2,568510954237495;-6,664729853968932;4,635761589403973;-163,42661824396495;-327,3415326395459;-16,479995117038484
12:07:53.999;0;Mov;1;12651;9,53;-6,938688314462722;0;7,559581667531358;0,4223029446069979;-6,938688314462722;7,559581667531358;-190,61861018707847;-338,57234412671284;-38,23969237342448
12:07:53.999;0;Mov;1;12652;9,53;-7,340653801843318;-1,8495194288460952;8,504678868984039;-1,8495194288460952;-7,340653801843318;8,504678868984039;-202,82601397747734;-349,8336741233558;-65,67583239234595
12:07:53.999;0;Mov;1;12653;9,53;-5,493527214880825;-3,496859693060091;7,3274941251869254;-3,496859693060091;-5,493527214880825;7,3274941251869254;-205,14542069765312;-357,34122745445114;-99,9786370433668
12:07:53.999;0;Mov;1;12654;9,53;-2,5553515160069584;-5,491134372997223;6,089297158726768;-5,491134372997223;-2,5553515160069584;6,089297158726768;-211,9510483108005;-356,5477462080752;-134,25092318491164
12:07:53.999;0;Mov;1;12655;9,53;0,8577654466574602;-8,1445842997528;6,03665892895291;-8,1445842997528;0,8577654466574602;6,03665892895291;-225,0434888760033;-349,68108157597584;-164,28113650929288
12:07:54.036;0;Wrist;1;58975;10,75;0,8541764818643758;6,287887298959319;6,646784970397046;6,287887298959319;0,8541764818643758;6,646784970397046;13,58073671681875;9,765923032319101;-10,98666341135899
12:07:54.036;0;Wrist;1;58976;10,75;0;4,9300577753532515;7,388506824701682;4,9300577753532515;-0,43187353725737787;7,388506824701682;-8,331553086947233;10,803552354503006;-10,925626392406995
12:07:54.036;0;Wrist;1;58977;10,75;0;5,948130932035279;7,053535664693136;5,948130932035279;0,13039949623001038;7,053535664693136;-14,099551377910704;10,43733024079104;-1,6479995117038484
12:07:54.036;0;Wrist;1;58978;10,75;0,7776116214484085;7,291604358043153;6,383593344676046;7,291604358043153;0,7776116214484085;6,383593344676046;-15,44236579485458;9,552293465987121;-0,7019257179479355
12:07:54.036;0;Wrist;1;58979;10,75;0;7,331083388012329;6,580987063966796;7,331083388012329;0,4617816765438551;6,580987063966796;-22,370067445905942;9,308145390179144;-6,683553575243385
12:07:54.067;0;Wrist;1;58980;10,53;0;7,230591658528398;6,857338366344187;7,230591658528398;0,03708609495047418;6,857338366344187;-22,61421552171392;10,101626636555071;-13,550218207342754
12:07:54.067;0;Wrist;1;58981;10,53;0;6,579790643024995;6,655159440137943;6,579790643024995;-0,29309976500747703;6,655159440137943;-18,402661214026306;12,909329508346813;-19,074068422498247
12:07:54.067;0;Wrist;1;58982;10,53;0;5,804571863460189;6,525955992309336;5,804571863460189;-0,4462294560361797;6,525955992309336;-18,25006866664632;9,704886013367107;-19,379253517258217
12:07:54.067;0;Wrist;1;58983;10,53;-1,9033540795617543;7,315530869472335;6,549882503738518;7,315530869472335;-1,9033540795617543;6,549882503738518;-20,722067934202094;2,044740134891812;-15,350810266426588
12:07:54.067;0;Wrist;1;58984;10,53;-1,8279855208746605;6,994915807061983;7,016449476607563;6,994915807061983;-1,8279855208746605;7,016449476607563;-25,025177770317697;-2,166814172795801;-11,322367015594958
12:07:54.069;0;Wrist;1;58985;10,07;-2,8364880252998446;6,513992736594744;10,575518051698355;6,513992736594744;-2,8364880252998446;10,575518051698355;-17,365031891842403;-6,164738914151433;-13,91644032105472
12:07:54.069;0;Wrist;1;58986;10,07;-3,6224738780632952;8,486733985412153;11,676137577440718;8,486733985412153;-3,6224738780632952;11,676137577440718;11,261329996642964;47,63939329203162;-6,74459059419538
12:07:54.069;0;Wrist;1;58987;10,07;-1,8315744260612812;9,762016663106174;8,074001663258766;9,762016663106174;-1,8315744260612812;8,074001663258766;39,429914242988374;113,62041077913754;1,098666341135899
12:07:54.069;0;Wrist;1;58988;10,07;0;11,916599589526047;8,982012199774163;11,916599589526047;-0,236872466129223;8,982012199774163;53,895687734611045;131,99255348368786;-11,20029297769097
12:07:54.069;0;Wrist;1;58989;10,07;0,5742362743003632;11,948899616992707;12,849733535264138;11,948899616992707;0,5742362743003632;12,849733535264138;61,06753746147038;161,62602618488114;-29,99969481490524
12:07:54.100;0;Wrist;1;58990;9,9;0;13,377312730796229;13,689553323465683;13,377312730796229;-0,2488357218438139;13,689553323465683;58,10724204229865;271,0654011658071;-38,85006256294442
12:07:54.100;0;Wrist;1;58991;9,9;1,9201025421918394;12,417859431745354;15,440974341563159;12,417859431745354;1,9201025421918394;15,440974341563159;86,58101138340403;373,66863002410963;-78,3715323343608
12:07:54.100;0;Wrist;1;58992;9,9;4,008887085329753;11,412945951719719;19,715445417645803;11,412945951719719;4,008887085329753;19,715445417645803;111,9113742484817;475,2037110507523;-124,17981505783257
12:07:54.100;0;Wrist;1;58993;9,9;2,4249518856624044;13,471822832422864;18,33010155034028;13,471822832422864;2,4249518856624044;18,33010155034028;103,91552476577044;622,3944822534868;-145,11551255836665
12:07:54.100;0;Wrist;1;58994;9,9;2,9632983928189947;12,873660046693319;18,173381374553667;12,873660046693319;2,9632983928189947;18,173381374553667;77,57805108798486;706,808679464095;-172,7958006530961
12:07:54.101;0;Wrist;1;58995;9,5;2,3304422608874784;10,242939733573412;21,971715063936276;10,242939733573412;2,3304422608874784;21,971715063936276;68,63612781151768;772,3929563280129;-200,0793481246376
12:07:54.101;0;Wrist;1;58996;9,5;7,546421990874966;-6,74009817423017;35,04396572771386;-6,74009817423017;7,546421990874966;35,04396572771386;46,08294930875576;747,7645191808832;-232,7036347544786
12:07:54.101;0;Wrist;1;58997;9,5;18,12911809137242;11,531382564775537;39,19999923703726;11,531382564775537;18,12911809137242;39,19999923703726;14,648884548478652;266,82332834864343;-201,84942167424543
12:07:54.101;0;Wrist;1;58998;9,5;15,786712813196203;31,27195043794061;39,19999923703726;31,27195043794061;15,786712813196203;39,19999923703726;35,46250801110874;100,28382213812678;-131,6263313699759
12:07:54.101;0;Wrist;1;58999;9,5;9,333732299264504;29,00730727561266;29,662892544328134;29,00730727561266;9,333732299264504;29,662892544328134;-15,411847285378583;73,64116336558122;-99,27671132541887
12:07:54.149;0;Mov;1;12656;10,42;3,952659831156346;-12,133134136478775;8,741551141392254;-12,133134136478775;3,952659831156346;8,741551141392254;-236,79311502426222;-341,4410840174566;-187,62779625843075
12:07:54.149;0;Mov;1;12657;10,42;6,381200502792444;-18,338475066377757;13,792437894833217;-18,338475066377757;6,381200502792444;13,792437894833217;-235,9080782494583;-336,37501144444104;-205,75579088717308
12:07:54.150;0;Mov;1;12658;10,42;9,806280899990844;-25,150353251747184;15,814228110599078;-25,150353251747184;9,806280899990844;15,814228110599078;-207,86156804101688;-338,9080477309488;-215,33860286263618
12:07:54.150;0;Mov;1;12659;10,42;14,52099959562975;-30,374706259346294;12,862892735068819;-30,374706259346294;14,52099959562975;12,862892735068819;-167,2719504379406;-341,19693594164863;-207,89208655049288
12:07:54.150;0;Mov;1;12660;10,42;18,939029740287484;-35,40525528733177;7,806024353770562;-35,40525528733177;18,939029740287484;7,806024353770562;-140,01892147587512;-332,5907162694174;-185,58305612353894
12:07:54.151;0;Mov;1;12661;10;21,931041520432142;-39,201197088534194;2,170134729682302;-39,201197088534194;21,931041520432142;2,170134729682302;-124,60707419049653;-310,12909329508346;-152,59254737998597
12:07:54.151;0;Mov;1;12662;10;21,97291291543321;-39,201197088534194;-4,343858245338298;-39,201197088534194;21,97291291543321;-4,343858245338298;-106,66219061861018;-266,1519211401715;-109,8361156041139
12:07:54.151;0;Mov;1;12663;10;19,421149708548235;-39,201197088534194;-10,44870792260506;-39,201197088534194;19,421149708548235;-10,44870792260506;-73,48857081820124;-195,806756797998;-64,36353648487808
12:07:54.151;0;Mov;1;12664;10;15,359624393444625;-39,201197088534194;-14,33317724387341;-39,201197088534194;15,359624393444625;-14,33317724387341;-24,47584459974975;-115,1768547624134;-27,588732566301463
12:07:54.151;0;Mov;1;12665;10;11,3052766502884;-39,201197088534194;-15,985302476577044;-39,201197088534194;11,3052766502884;-15,985302476577044;19,165623950926236;-41,99346903897214;-5,279702139347514
12:07:54.158;0;Wrist;1;59000;9,58;3,219312208166753;25,821491515854365;22,267208624530777;25,821491515854365;3,219312208166753;22,267208624530777;-47,547837763603624;31,61717581713309;-90,63997314371166
12:07:54.158;0;Wrist;1;59001;9,58;4,494595362712485;23,519760734885708;25,6695589312418;23,519760734885708;4,494595362712485;25,6695589312418;-5,7374797814874725;2,7771843623157446;-91,83019501327556
12:07:54.159;0;Wrist;1;59002;9,58;8,629096156193732;21,74082537308878;28,36248741111484;21,74082537308878;8,629096156193732;28,36248741111484;33,7229529709769;-36,34754478591265;-82,33893856624043
12:07:54.159;0;Wrist;1;59003;9,58;11,032514610736412;19,484555726798302;27,84447767571032;19,484555726798302;11,032514610736412;27,84447767571032;34,7911008026368;-80,87405011139256;-60,21301919614246
12:07:54.159;0;Wrist;1;59004;9,58;11,071993163853877;16,932792519913328;27,9892326883755;16,932792519913328;11,071993163853877;27,9892326883755;12,512588885158848;-126,62129581591235;-32,898953215124976
12:07:54.213;0;Mov;1;12666;10,1;8,375475898007142;-39,201197088534194;-15,346465193639943;-39,201197088534194;8,375475898007142;-15,346465193639943;34,11969359416486;15,10666219061861;0,5798516800439466
12:07:54.213;0;Mov;1;12667;10,1;7,064302499465926;-39,201197088534194;-14,425293549913022;-39,201197088534194;7,064302499465926;-14,425293549913022;15,991698965422529;57,161168248542744;-5,249183629871517
12:07:54.213;0;Mov;1;12668;10,1;7,285622730185858;-39,201197088534194;-16,869386501663257;-39,201197088534194;7,285622730185858;-16,869386501663257;-11,474959562974945;99,82604449598682;-17,639698477126377
12:07:54.213;0;Mov;1;12669;10,1;9,294253746147039;-37,84575945310831;-17,893442716757715;-37,84575945310831;9,294253746147039;-17,893442716757715;-24,68947416608173;146,61091952269052;-26,73421430097354
12:07:54.213;0;Mov;1;12670;10,1;12,340098269600512;-32,57355342265084;-11,964452612384411;-32,57355342265084;12,340098269600512;-11,964452612384411;-29,053621021149326;188,42127750480665;-24,048585467085786
12:07:54.216;0;Mov;1;12671;9,73;14,869130909146397;-26,295236060670796;-7,449519524216437;-26,295236060670796;14,869130909146397;-7,449519524216437;-29,847102267525255;215,64378795739617;-4,516739402447585
12:07:54.216;0;Mov;1;12672;9,73;15,48763142033143;-17,01055368205817;-9,785943174535356;-17,01055368205817;15,48763142033143;-9,785943174535356;-23,010956144901883;237,18985564745017;31,22043519394513
12:07:54.216;0;Mov;1;12673;9,73;-5,013800565355388;6,750865485854671;7,126511619922483;6,750865485854671;-5,013800565355388;7,126511619922483;56,12353892635883;245,7350383007294;43,000579851680044
12:07:54.216;0;Mov;1;12674;9,73;-24,42179059724723;-5,69690256202887;29,699980162968842;-5,69690256202887;-24,42179059724723;29,699980162968842;505,3865169225135;170,04913480025635;-170,7510605182043
12:07:54.216;0;Mov;1;12675;9,73;39,19999923703726;16,28677671132542;-3,9622304834131903;16,28677671132542;39,19999923703726;-3,9622304834131903;-49,43998535111545;163,42661824396495;11,444441053498947
12:07:54.217;0;Mov;1;12676;9,38;-10,266866245002594;-30,320871608630636;8,24388008514664;-30,320871608630636;-10,266866245002594;8,24388008514664;-78,52412488174078;330,72908719138155;122,7149266029847
12:07:54.217;0;Mov;1;12677;9,38;-0,7536851100192267;-12,675069429609058;-2,6761802556688132;-12,675069429609058;-0,7536851100192267;-2,6761802556688132;104,77004303109837;86,12323374126407;65,58427686391796
12:07:54.217;0;Mov;1;12678;9,38;13,659645184179205;8,102712904751732;-0,9187780865657521;8,102712904751732;13,659645184179205;-0,9187780865657521;77,88323618274484;-6,256294442579424;68,69716483046967
12:07:54.217;0;Mov;1;12679;9,38;-2,166545705282754;-12,031446462904752;1,323136058191168;-12,031446462904752;-2,166545705282754;1,323136058191168;55,33005767998291;63,50901821955016;50,50813318277535
12:07:54.217;0;Mov;1;12680;9,38;7,871822260200812;-4,646528424176763;1,7478316360591448;-4,646528424176763;7,871822260200812;1,7478316360591448;47,42576372569964;14,191106906338694;29,206213568529314
12:07:54.271;0;Mov;1;12681;9,43;3,9777825251014742;-2,2694295613727227;0;-2,2694295613727227;3,9777825251014742;0,39957273490668965;11,474959562974945;8,941923276467177;0,27466658528397475
12:07:54.271;0;Mov;1;12682;9,43;1,0120914096118045;-3,3317667165135654;0,8338389352282785;-3,3317667165135654;1,0120914096118045;0,8338389352282785;-15,533921323282572;20,630512405774102;-12,17688528092288
12:07:54.271;0;Mov;1;12683;9,43;-2,5098910966063417;-2,780260771126438;0;-2,780260771126438;-2,5098910966063417;0,08972441785943175;-21,698660237434005;22,339548936429946;-10,193182164983062
12:07:54.272;0;Mov;1;12684;9,43;-1,7956846589175084;-3,856953785439619;0;-3,856953785439619;-1,7956846589175084;0,3086520153183844;-6,95822016052736;21,240882595294046;2,288888210699789
12:07:54.272;0;Mov;1;12685;9,43;0;-3,1654775574510943;0,5897884948080385;-3,1654775574510943;-0,38043154960592973;0,5897884948080385;5,1576281014435255;18,463698232978302;6,805627613147374
12:07:54.307;0;Wrist;1;59005;10,35;9,995300149540697;14,16928044984283;26,825209051789912;14,16928044984283;9,995300149540697;26,825209051789912;-1,1291848506118962;-172,03283791619617;-4,24207281716361
12:07:54.307;0;Wrist;1;59006;10,35;8,667378765221107;12,311387028107546;22,472975859859005;12,311387028107546;8,667378765221107;22,472975859859005;-6,622516556291391;-213,26334421826837;22,186956389049957
12:07:54.307;0;Wrist;1;59007;10,35;7,929246173741874;11,756291581469162;17,82525101474044;11,756291581469162;7,929246173741874;17,82525101474044;-11,322367015594958;-235,7860042115543;39,1552476577044
12:07:54.307;0;Wrist;1;59008;10,35;7,5882933858760335;12,180987159337137;15,665883358256783;12,180987159337137;7,5882933858760335;15,665883358256783;-19,531846064638202;-240,69948423718986;49,40946684163946
12:07:54.307;0;Wrist;1;59009;10,35;7,753386123996704;11,715616130558184;16,722239600817897;11,715616130558184;7,753386123996704;16,722239600817897;-25,147251808221686;-242,04229865413373;58,6870937223426
12:07:54.308;0;Wrist;1;59010;9,98;7,546421990874966;9,712967696157719;17,280922879726553;9,712967696157719;7,546421990874966;17,280922879726553;-23,83495590075381;-246,8337046418653;70,52827539902951
12:07:54.308;0;Wrist;1;59011;9,98;5,883529446546831;7,552403618732261;15,013885921811578;7,552403618732261;5,883529446546831;15,013885921811578;-14,587847529526657;-259,8956266975921;80,62990203558458
12:07:54.308;0;Wrist;1;59012;9,98;4,348643452253792;6,6300365077669605;10,704721022675253;6,6300365077669605;4,348643452253792;10,704721022675253;8,6977752006592;-269,0206610309153;86,977752006592
12:07:54.308;0;Wrist;1;59013;9,98;3,941892757957701;5,722025494399854;9,118393696401867;5,722025494399854;3,941892757957701;9,118393696401867;32,898953215124976;-268,95962401196323;88,86989959410383
12:07:54.308;0;Wrist;1;59014;9,98;3,5817989040040286;5,518650147251808;10,117325548570207;5,518650147251808;3,5817989040040286;10,117325548570207;48,219244972075565;-267,6168095950194;90,3347880489517
12:07:54.330;0;Mov;1;12686;9,51;-1,5719718247398298;-2,4249518856624044;0;-2,4249518856624044;-1,5719718247398298;0,4653706711401715;11,871700186162908;21,912289803765983;5,096591082491531
12:07:54.330;0;Mov;1;12687;9,51;-0,7321512616542558;-2,179705143513291;0,6687460182882168;-2,179705143513291;-0,7321512616542558;0,6687460182882168;20,264290292062135;30,64058351390118;7,4159978026673175
12:07:54.330;0;Mov;1;12688;9,51;-0,8446058892139958;-4,254133827478866;1,003717178296762;-4,254133827478866;-0,8446058892139958;1,003717178296762;26,795251319925534;41,016876735740226;7,38547929319132
12:07:54.330;0;Mov;1;12689;9,51;-1,4762657790231024;-1,9224952648625142;1,6616962425992614;-1,9224952648625142;-1,4762657790231024;1,6616962425992614;34,11969359416486;48,524430066835535;11,902218695638904
12:07:54.330;0;Mov;1;12690;9,51;2,247895891827143;0;1,690408080156865;-0,020337535459885328;2,247895891827143;1,690408080156865;48,79909665211951;70,5587939085055;16,876735740226447
12:07:54.353;0;Wrist;1;59015;9,94;3,1965818792535172;5,583251632740257;12,850929479354228;5,583251632740257;3,1965818792535172;12,850929479354228;50,50813318277535;-275,3685110019227;90,06012146366771
12:07:54.353;0;Wrist;1;59016;9,94;1,3267250825907162;4,951591444898831;13,97188673055208;4,951591444898831;1,3267250825907162;13,97188673055208;50,263985106967375;-289,4070253608814;86,64204840235602
12:07:54.353;0;Wrist;1;59017;9,94;-2,4141850508896145;3,817474993896298;12,867678418836023;3,817474993896298;-2,4141850508896145;12,867678418836023;61,67790765099033;-309,8239082003235;75,99108859523301
12:07:54.353;0;Wrist;1;59018;9,94;-2,125870492797632;2,6378978850672934;10,625763916440322;2,6378978850672934;-2,125870492797632;10,625763916440322;84,6888637958922;-326,9142735068819;54,322946867275
12:07:54.353;0;Wrist;1;59019;9,94;1,282461084131901;1,3279213843195898;8,928177549058503;1,3279213843195898;1,282461084131901;8,928177549058503;90,76204718161566;-337,015900143437;35,8287301248207
12:07:54.363;0;Mov;1;12691;9,42;1,8590899618900112;-1,5121555461668752;2,1186926824243906;-1,5121555461668752;1,8590899618900112;2,1186926824243906;62,80709250160222;97,720267342143;13,946958830530717
12:07:54.363;0;Mov;1;12692;9,42;2,659431793038728;-0,7034394240966522;1,589916708311716;-0,7034394240966522;2,659431793038728;1,589916708311716;42,909024323252055;126,83492538224434;9,308145390179144
12:07:54.363;0;Mov;1;12693;9,42;1,7394574047441023;2,657039189580981;4,334287831507309;2,657039189580981;1,7394574047441023;4,334287831507309;-9,063997314371166;175,90868861964782;15,472884304330577
12:07:54.363;0;Mov;1;12694;9,42;0;2,6941251392406995;1,5301004297387615;2,6941251392406995;0,49408247889454326;1,5301004297387615;-28,839991454817348;247,8102969450972;38,17865535447249
12:07:54.363;0;Mov;1;12695;9,42;-1,7155308933149205;6,716171662800988;8,502286027100437;6,716171662800988;-1,7155308933149205;8,502286027100437;-34,7605822931608;272,07251197851497;63,0512405774102
12:07:54.397;0;Wrist;1;59020;9,91;2,113907237083041;0;7,128903984954375;0,3361674915406507;2,113907237083041;7,128903984954375;75,62486648152104;-343,3942686239204;31,128879665517136
12:07:54.397;0;Wrist;1;59021;9,91;1,0419995488982818;-1,13052766502884;5,4038027970213935;-1,13052766502884;1,0419995488982818;5,4038027970213935;68,57509079256569;-346,26300851466414;35,8287301248207
12:07:54.397;0;Wrist;1;59022;9,91;1,902157658619953;-3,005169787820063;4,8511001922666095;-3,005169787820063;1,902157658619953;4,8511001922666095;77,02871791741691;-341,80730613116856;46,388134403515735
12:07:54.397;0;Wrist;1;59023;9,91;3,9335185266426587;-5,894296281319621;6,810681764427625;-5,894296281319621;3,9335185266426587;6,810681764427625;79,3786431470687;-331,06479079561757;64,82131412701804
12:07:54.398;0;Wrist;1;59024;9,91;4,1022002891628775;-10,48100890377514;9,940269554734947;-10,48100890377514;4,1022002891628775;9,940269554734947;77,51701406903287;-320,6579790643025;91,25034333323161
12:07:54.400;0;Wrist;1;59025;9,59;2,697714163640248;-16,5738948484756;12,565007286294138;-16,5738948484756;2,697714163640248;12,565007286294138;83,71227149266029;-316,1107211523789;120,7617419965209
12:07:54.400;0;Wrist;1;59026;9,59;0,9020295047227394;-22,94911420026246;14,206366161076692;-22,94911420026246;0,9020295047227394;14,206366161076692;93,26456495864743;-316,53798028504286;144,6577349162267
12:07:54.400;0;Wrist;1;59027;9,59;-2,802990861613819;-29,201111255226294;9,706986068300424;-29,201111255226294;-2,802990861613819;9,706986068300424;99,9786370433668;-311,38035218359937;159,45921201208532
12:07:54.400;0;Wrist;1;59028;9,59;-9,459346484267709;-32,528092287972655;0;-32,528092287972655;-9,459346484267709;0,29549242807168796;109,7140415662099;-290,59724723044525;159,33713797418133
12:07:54.400;0;Wrist;1;59029;9,59;-13,32347808008057;-32,823583941160315;-3,549497922833949;-32,823583941160315;-13,32347808008057;-3,549497922833949;114,44441053498947;-237,52555925168616;142,6129947813349
12:07:54.418;0;Mov;1;12696;9,47;-3,2025635071108125;7,359795106357006;17,528563417462692;7,359795106357006;-3,2025635071108125;17,528563417462692;2,6551103244117558;388,2564775536363;66,16412854396191
12:07:54.419;0;Mov;1;12697;9,47;-1,955992309335612;0;16,32027459028901;0;-1,955992309335612;16,32027459028901;6,988738670003357;608,630634479812;70,16205328531754
12:07:54.419;0;Mov;1;12698;9,47;0,5622730185857723;0;16,00205046235542;-0,2715659166425062;0,5622730185857723;16,00205046235542;41,41361735892819;769,4021423993652;73,36649678029725
12:07:54.419;0;Mov;1;12699;9,47;0,9295449809450056;2,954924161503952;29,034821619312112;2,954924161503952;0,9295449809450056;29,034821619312112;96,31641590624714;819,7882015442366;53,19376201666311
12:07:54.419;0;Mov;1;12700;9,47;6,021106887264626;-12,10681478316599;19,68793107394635;-12,10681478316599;6,021106887264626;19,68793107394635;81,17923520615253;763,7256996368297;45,6862086855678
12:07:54.463;0;Wrist;1;59030;9,69;-13,906088824121829;-32,97552034058656;-3,4131169030579547;-32,97552034058656;-13,906088824121829;-3,4131169030579547;87,86278878139592;-162,0532853175451;114,99374370555742
12:07:54.463;0;Wrist;1;59031;9,69;-12,734885708182013;-33,14419995727409;-3,493270668660543;-33,14419995727409;-12,734885708182013;-3,493270668660543;30,97628711813715;-82,5525681325724;78,85982848597675
12:07:54.463;0;Wrist;1;59032;9,69;-12,42623390148625;-33,129844813379314;-6,429053525650807;-33,129844813379314;-12,42623390148625;-6,429053525650807;-12,17688528092288;-15,015106662190618;35,30991546372875
12:07:54.463;0;Wrist;1;59033;9,69;-10,288399914548174;-33,00662251655629;-12,228840182195501;-33,00662251655629;-10,288399914548174;-12,228840182195501;-17,94488357188635;43,488876003296;-13,36710715048677
12:07:54.463;0;Wrist;1;59034;9,69;-4,9228797265541555;-32,69677571947386;-25,49609172338023;-32,69677571947386;-4,9228797265541555;-25,49609172338023;-43,79406109805597;154,45417645802178;-76,17419965208899
12:07:54.479;0;Mov;1;12701;9,55;12,872463148899808;-12,687032685323649;31,85216834009827;-12,687032685323649;12,872463148899808;31,85216834009827;37,72087771233253;459,9139378032777;152,50099185155798
12:07:54.479;0;Mov;1;12702;9,55;6,082119109927671;10,67959856715598;33,219569231238744;10,67959856715598;6,082119109927671;33,219569231238744;42,909024323252055;231,02511673329874;192,08349864192633
12:07:54.479;0;Mov;1;12703;9,55;-0,8458021909428693;15,161034730063784;32,426404614398635;15,161034730063784;-0,8458021909428693;32,426404614398635;-12,93984801782281;188,97061067537462;240,48585467085786
12:07:54.479;0;Mov;1;12704;9,55;-6,939884735404523;18,606452375865963;27,01183545945616;18,606452375865963;-6,939884735404523;27,01183545945616;-15,991698965422529;135,68529313028353;282,63191625721
12:07:54.479;0;Mov;1;12705;9,55;-13,106943533127842;18,86844805749687;24,888357570116277;18,86844805749687;-13,106943533127842;24,888357570116277;-4,852443006683553;98,75789666432692;299,9969481490524
12:07:54.519;0;Wrist;1;59035;9,74;-9,24161503952147;-32,25174336985382;-10,31711210974456;-32,25174336985382;-9,24161503952147;-10,31711210974456;-136,26514481032746;265,6331064790796;-127,93359172338023
12:07:54.519;0;Wrist;1;59036;9,74;-4,272078711050752;-13,769707327494125;27,75714705343791;-13,769707327494125;-4,272078711050752;27,75714705343791;-137,36381115146335;237,0067445905942;-116,1839655751213
12:07:54.519;0;Wrist;1;59037;9,74;28,557487334818568;25,565477462080754;32,73385952330088;25,565477462080754;28,557487334818568;32,73385952330088;-133,4879604480117;219,09237952818384;26,703695791497545
12:07:54.519;0;Wrist;1;59038;9,74;-4,727878849147007;11,554112178411206;-2,8568255123294777;11,554112178411206;-4,727878849147007;-2,8568255123294777;-272,5608081301309;329,81353190710166;57,13064973906675
12:07:54.520;0;Wrist;1;59039;9,74;-25,67195081942198;5,105917825098422;19,588635288552506;5,105917825098422;-25,67195081942198;19,588635288552506;-247,9628894924772;365,00137333292645;-45,411542100283825
12:07:54.545;0;Wrist;1;59040;9,6;-9,37440775017548;-4,964751121555223;3,6643452730643635;-4,964751121555223;-9,37440775017548;3,6643452730643635;-48,829615161595505;402,38654744102297;-80,59938352610858
12:07:54.545;0;Wrist;1;59041;9,6;14,957659382915738;-8,327622875148778;5,832087160863064;-8,327622875148778;14,957659382915738;5,832087160863064;-83,46812341685232;251,83874019592884;-38,758507034516434
12:07:54.546;0;Wrist;1;59042;9,6;-8,502286027100437;5,236317217017121;9,830207411420027;5,236317217017121;-8,502286027100437;9,830207411420027;-94,88204596087527;88,10693685720389;-46,998504593035676
12:07:54.546;0;Wrist;1;59043;9,6;2,1174962614825894;3,7696219710379344;5,728007122257149;3,7696219710379344;2,1174962614825894;5,728007122257149;-65,03494369335002;73,9463484603412;-26,673177282021545
12:07:54.546;0;Wrist;1;59044;9,6;-2,209613282799768;4,388122482222968;7,48540929136021;4,388122482222968;-2,209613282799768;7,48540929136021;-58,35139011810663;41,13895077364422;-31,891842402417065
12:07:54.569;0;Mov;1;12706;9,81;-21,331680883205664;18,216450621051667;27,292971968749047;18,216450621051667;-21,331680883205664;27,292971968749047;9,216589861751151;64,45509201330607;288,6745811334574
12:07:54.569;0;Mov;1;12707;9,81;-25,614526429029205;16,859817041535692;28,442640461439865;16,859817041535692;-25,614526429029205;28,442640461439865;34,821619312112794;11,658070619830928;250,099185155797
12:07:54.569;0;Mov;1;12708;9,81;-26,711558122501298;15,025849177526169;27,298953596606342;15,025849177526169;-26,711558122501298;27,298953596606342;53,743095187231056;-50,53865169225135;190,89327677236244
12:07:54.569;0;Mov;1;12709;9,81;-27,401837214270454;14,209954947050386;24,607221060823388;14,209954947050386;-27,401837214270454;24,607221060823388;62,95968504898221;-109,65300454725791;124,08825952940458
12:07:54.569;0;Mov;1;12710;9,81;-27,489169743949706;13,501730971709343;20,680881298257393;13,501730971709343;-27,489169743949706;20,680881298257393;74,34308908352916;-159,03195287942137;58,96176030762658
12:07:54.570;0;Mov;1;12711;9,52;-24,742406613361002;12,687032685323649;15,274685659352397;12,687032685323649;-24,742406613361002;15,274685659352397;85,69597460860011;-204,5960875270852;0,4272591326639607
12:07:54.570;0;Mov;1;12712;9,52;-20,289681691946164;11,556505020294809;10,022815446943572;11,556505020294809;-20,289681691946164;10,022815446943572;78,61568041016876;-242,16437269203772;-42,05450605792413
12:07:54.570;0;Mov;1;12713;9,52;-17,345524842066713;9,947447126682333;8,325230033265175;9,947447126682333;-17,345524842066713;8,325230033265175;42,695394756920074;-269,17325357829526;-68,02575762199774
12:07:54.570;0;Mov;1;12714;9,52;-15,83815462202826;6,610895203253273;9,136338579973755;6,610895203253273;-15,83815462202826;9,136338579973755;-7,629627368999298;-297,61650440992463;-84,50575273903623
12:07:54.570;0;Mov;1;12715;9,52;-14,885879848628193;2,9632983928189947;7,993847659230323;2,9632983928189947;-14,885879848628193;7,993847659230323;-46,51020844141972;-334,7575304422132;-94,48530533768731
12:07:54.628;0;Mov;1;12716;9,59;-14,06998561815241;1,0168767357402264;4,190728762932219;1,0168767357402264;-14,06998561815241;4,190728762932219;-61,89153721732231;-368,87722403637804;-96,40797143467513
12:07:54.628;0;Mov;1;12717;9,59;-12,779149945066683;-1,1125827814569536;1,3781671298486282;-1,1125827814569536;-12,779149945066683;1,3781671298486282;-66,1946470534379;-388,8973662526322;-92,25745414593952
12:07:54.629;0;Mov;1;12718;9,59;-11,004999313333537;-3,3556932279427474;1,813629542489395;-3,3556932279427474;-11,004999313333537;1,813629542489395;-78,12738425855281;-399,1515854365673;-83,01034577471236
12:07:54.629;0;Mov;1;12719;9,59;-11,15214716788232;-5,378679864650411;4,347447031311991;-5,378679864650411;-11,15214716788232;4,347447031311991;-108,31019013031404;-408,12402722251045;-73,21390423291726
12:07:54.629;0;Mov;1;12720;9,59;-11,640247810296945;-7,940013008514664;4,948002658925138;-7,940013008514664;-11,640247810296945;4,948002658925138;-144,19995727408673;-417,6458021790216;-70,95553453169347
12:07:54.658;0;Mov;1;12721;9,48;-11,01935541093173;-10,29677438428907;3,9813715495010222;-10,29677438428907;-11,01935541093173;3,9813715495010222;-179,02157658619953;-423,41380046998506;-77,24234748374889
12:07:54.658;0;Mov;1;12722;9,48;-11,022944196905422;-11,905832277901547;3,5124119731742303;-11,905832277901547;-11,022944196905422;3,5124119731742303;-209,60112308114873;-417,6458021790216;-89,99908444471572
12:07:54.658;0;Mov;1;12723;9,48;-9,42824240089114;-12,58893379772332;3,402350068285165;-12,58893379772332;-9,42824240089114;3,402350068285165;-233,89385662404248;-403,91247291482284;-115,69566942350535
12:07:54.658;0;Mov;1;12724;9,48;-5,918222792748802;-13,647681928464614;3,913181039613025;-13,647681928464614;-5,918222792748802;3,913181039613025;-250,58748130741296;-381,7865535447249;-149,51017792291026
12:07:54.658;0;Mov;1;12725;9,48;-1,9284768927198095;-16,636103015228738;7,887374778740806;-16,636103015228738;-1,9284768927198095;7,887374778740806;-262,55073702200383;-351,9394512771996;-178,59431745353558
12:07:54.666;0;Wrist;1;59045;10,03;-2,989617746131779;5,552147072511978;7,945994636371959;5,552147072511978;-2,989617746131779;7,945994636371959;-48,28028199102756;29,938657795953247;-23,8959929197058
12:07:54.666;0;Wrist;1;59046;10,03;-1,6186285458693197;4,812818060090946;7,182738635670034;4,812818060090946;-1,6186285458693197;7,182738635670034;-35,52354503006073;27,863399151585437;-12,024292733542893
12:07:54.667;0;Wrist;1;59047;10,03;-2,1186926824243906;5,122666287728507;7,246144177068392;5,122666287728507;-2,1186926824243906;7,246144177068392;-24,65895565660573;22,15643787957396;-1,6174810022278512
12:07:54.667;0;Wrist;1;59048;10,03;0;6,055800233466598;6,693441572313608;6,055800233466598;-0,05144199882766007;6,693441572313608;-21,17984557634205;15,045625171666616;6,347849971007416
12:07:54.667;0;Wrist;1;59049;10,03;1,1520615730002746;6,533134041108433;6,274727622302927;6,533134041108433;1,1520615730002746;6,274727622302927;-21,759697256385998;4,821924497207556;1,1902218695638904
12:07:54.667;0;Wrist;1;59050;9,75;0;6,545097296823023;6,569023808252205;6,545097296823023;0,46776330440115055;6,569023808252205;-20,99673451948607;3,204443494979705;-5,035554063539537
12:07:54.668;0;Wrist;1;59051;9,75;1,3925229890209663;5,7782525101474045;5,735184694204535;5,7782525101474045;1,3925229890209663;5,735184694204535;-13,153477584154789;4,760887478255562;-10,284737693411055
12:07:54.668;0;Wrist;1;59052;9,75;0;6,844178689687796;5,907455957976013;6,844178689687796;-0,019141209515885837;5,907455957976013;-18,921475875118258;-5,981627857295449;-22,186956389049957
12:07:54.668;0;Wrist;1;59053;9,75;-3,565050202948088;6,067763489181188;8,405384037293619;6,067763489181188;-3,565050202948088;8,405384037293619;-20,783104953154087;-23,37717825861385;-27,1614734336375
12:07:54.668;0;Wrist;1;59054;9,75;-3,085323791848506;7,459089938047426;9,986925679799798;7,459089938047426;-3,085323791848506;9,986925679799798;-2,6551103244117558;19,196142460402235;-11,932737205114902
12:07:54.695;0;Wrist;1;59055;9,64;-4,470668851283303;9,575390255439924;9,590942297128208;9,575390255439924;-4,470668851283303;9,590942297128208;32,50221259193701;76,78456984160894;-2,7466658528397474
12:07:54.696;0;Wrist;1;59056;9,64;-2,730014906384472;12,28267483291116;8,29891067995239;12,28267483291116;-2,730014906384472;8,29891067995239;71,56590472121341;120,73122348704489;-3,326517532883694
12:07:54.697;0;Wrist;1;59057;9,64;-3,0410595549638355;11,471566286202583;12,706174466689047;11,471566286202583;-3,0410595549638355;12,706174466689047;107,02841273232215;152,98928800317393;-13,458662678914761
12:07:54.697;0;Wrist;1;59058;9,64;-3,458577322458571;19,37329668568987;16,919633320108645;19,37329668568987;-3,458577322458571;16,919633320108645;135,50218207342755;284,6156193731498;-1,9531846064638203
12:07:54.697;0;Wrist;1;59059;9,64;-1,3937192907498397;16,87058435316019;19,062252037110508;16,87058435316019;-1,3937192907498397;19,062252037110508;203,34482863856928;429,12076174199655;-29,755546739097262
12:07:54.722;0;Mov;1;12726;9,58;0,8039307959418012;-22,025549714651937;12,713352038636433;-22,025549714651937;0,8039307959418012;12,713352038636433;-265,75518051698356;-325,72405163731804;-201,97149571214942
12:07:54.722;0;Mov;1;12727;9,58;5,596411309396649;-27,369537186803797;12,387951292458876;-27,369537186803797;5,596411309396649;12,387951292458876;-241,82866908780176;-310,12909329508346;-214,23993652150028
12:07:54.722;0;Mov;1;12728;9,58;13,553172780541399;-33,129844813379314;11,07319006164739;-33,129844813379314;13,553172780541399;11,07319006164739;-213,17178868984038;-297,46391186254465;-201,78838465529344
12:07:54.722;0;Mov;1;12729;9,58;20,07553903317362;-39,201197088534194;14,985174680318613;-39,201197088534194;20,07553903317362;14,985174680318613;-216,1626026184881;-290,50569170201726;-167,5771355327006
12:07:54.723;0;Mov;1;12730;9,58;21,812604907376326;-39,201197088534194;17,64939191869869;-39,201197088534194;21,812604907376326;17,64939191869869;-238,68526261177405;-287,3622852259896;-127,35374004333629
12:07:54.760;0;Wrist;1;59060;9,73;0;12,901175344096194;25,69587733085116;12,901175344096194;0,2440504255186239;25,69587733085116;251,1673329874569;589,8617511520737;-60,8844264046144
12:07:54.760;0;Wrist;1;59061;9,73;-3,352104203543199;16,553558076723533;21,576927625354777;16,553558076723533;-3,352104203543199;21,576927625354777;255,80614642780847;814,966277047029;-51,85094759971923
12:07:54.760;0;Wrist;1;59062;9,73;1,1257423389004182;10,214227538377026;23,1584711752678;10,214227538377026;1,1257423389004182;23,1584711752678;250,49592577898494;932,5846125675222;-42,78695028534806
12:07:54.761;0;Wrist;1;59063;9,73;5,1430035363322855;-6,103653256324961;36,80017242957854;-6,103653256324961;5,1430035363322855;36,80017242957854;231,94067201757866;954,7105319376202;-70,71138645588549
12:07:54.761;0;Wrist;1;59064;9,73;12,530314416943876;4,859474662007508;39,19999923703726;4,859474662007508;12,530314416943876;39,19999923703726;24,597918637653738;490,73763237403483;-104,31226538895841
12:07:54.779;0;Mov;1;12731;9,63;20,749071092867823;-39,201197088534194;10,454689550462355;-39,201197088534194;20,749071092867823;10,454689550462355;-232,21533860286263;-280,64821314127016;-92,01330607013153
12:07:54.780;0;Mov;1;12732;9,63;19,364923169652393;-39,201197088534194;-4,459902016510513;-39,201197088534194;19,364923169652393;-4,459902016510513;-171,39194921720022;-249,946592608417;-59,45005645924253
12:07:54.780;0;Mov;1;12733;9,63;16,17671552171392;-39,201197088534194;-16,752147740104373;-39,201197088534194;16,17671552171392;-16,752147740104373;-82,76619769890439;-179,5709097567675;-27,405621509445478
12:07:54.780;0;Mov;1;12734;9,63;12,52313589129307;-39,201197088534194;-22,679940946684162;-39,201197088534194;12,52313589129307;-22,679940946684162;-13,397625659962767;-101,96234015930662;-10,925626392406995
12:07:54.780;0;Mov;1;12735;9,63;10,05392048402356;-39,201197088534194;-20,853150654622027;-39,201197088534194;10,05392048402356;-20,853150654622027;-0,640888698995941;-42,237617114780114;-12,695699942014832
12:07:54.838;0;Mov;1;12736;9,68;9,811066583758048;-39,201197088534194;-21,41063989684744;-39,201197088534194;9,811066583758048;-21,41063989684744;-45,38102359080783;14,374217963194678;-32,92947172460097
12:07:54.838;0;Mov;1;12737;9,68;10,915274895474106;-39,201197088534194;-24,67062707907346;-39,201197088534194;10,915274895474106;-24,67062707907346;-93,96649067659536;73,85479293191321;-69,79583117160558
12:07:54.838;0;Mov;1;12738;9,68;12,737278550065614;-39,201197088534194;-27,181712927640614;-39,201197088534194;12,737278550065614;-27,181712927640614;-86,70308542130802;143,6201055940428;-103,1830805383465
12:07:54.838;0;Mov;1;12739;9,68;30,383081682790614;-39,201197088534194;-38,03358180486465;-39,201197088534194;30,383081682790614;-38,03358180486465;81,17923520615253;301,85857722708823;-70,95553453169347
12:07:54.838;0;Mov;1;12740;9,68;30,439308221686453;-12,636786820581683;13,361760689107944;-12,636786820581683;30,439308221686453;13,361760689107944;252,32703634754478;283,33384197515795;64,30249946592609
12:07:54.854;0;Wrist;1;59065;9,96;-7,575133709219641;37,349284340952785;39,19999923703726;37,349284340952785;-7,575133709219641;39,19999923703726;-62,898648030030216;135,38010803552353;-89,0530106509598
12:07:54.854;0;Wrist;1;59066;9,96;-7,68280301065096;35,533261360515155;39,19999923703726;35,533261360515155;-7,68280301065096;39,19999923703726;18,951994384594258;176,97683645130772;-128,42188787499617
12:07:54.854;0;Wrist;1;59067;9,96;-3,0901089987640002;35,898140659810174;33,96966460158086;35,898140659810174;-3,0901089987640002;33,96966460158086;47,090060121463665;101,62663655507065;-191,59520249031038
12:07:54.854;0;Wrist;1;59068;9,96;7,037983623004853;33,889511551255836;35,8012405774102;33,889511551255836;7,037983623004853;35,8012405774102;69,85686819055758;38,08709982604449;-217,413861507004
12:07:54.855;0;Wrist;1;59069;9,96;13,58906254768517;31,597352137821588;37,38996169927061;31,597352137821588;13,58906254768517;37,38996169927061;52,36976226081118;-24,9946592608417;-198,46186712240973
12:07:54.869;0;Mov;1;12741;9,59;2,407007002090518;-2,271822403256325;29,924888225959045;-2,271822403256325;2,407007002090518;29,924888225959045;409,7415082247383;348,36878566850794;40,406506546220285
12:07:54.869;0;Mov;1;12742;9,59;13,066268082216865;-1,7334757768868068;12,740867336039308;-1,7334757768868068;13,066268082216865;12,740867336039308;297,49443037202064;403,4546952726829;43,24472792748802
12:07:54.869;0;Mov;1;12743;9,59;-11,5684682760094;-25,664773247474592;3,2384532742545855;-25,664773247474592;-11,5684682760094;3,2384532742545855;209,66216010010072;355,7237464522233;103,1830805383465
12:07:54.869;0;Mov;1;12744;9,59;15,158641888180181;-13,141636402478102;4,069899784844508;-13,141636402478102;15,158641888180181;4,069899784844508;117,61833552049318;195,776238288522;105,53300576799829
12:07:54.870;0;Mov;1;12745;9,59;6,978167344431898;-3,8258492252113405;-1,7131382898571734;-3,8258492252113405;6,978167344431898;-1,7131382898571734;52,2171697134312;101,13834040345469;44,434949797051914
12:07:54.877;0;Wrist;1;59070;9,82;14,409741508224739;29,264517273476365;33,13462858973968;29,264517273476365;14,409741508224739;33,13462858973968;5,7374797814874725;-83,10190130314035;-157,84173100985748
12:07:54.877;0;Wrist;1;59071;9,82;11,855586413159582;26,127750480666524;28,2954935605945;26,127750480666524;11,855586413159582;28,2954935605945;-37,324137089144564;-130,588702047792;-116,97744682149724
12:07:54.877;0;Wrist;1;59072;9,82;10,022815446943572;22,626106295968505;26,86708044679098;22,626106295968505;10,022815446943572;26,86708044679098;-53,437910092471085;-176,1528366954558;-87,03878902554399
12:07:54.877;0;Wrist;1;59073;9,82;11,301687864314706;20,841187398907437;27,16376804406873;20,841187398907437;11,301687864314706;27,16376804406873;-52,33924375133518;-217,71904660176398;-64,18042542802209
12:07:54.877;0;Wrist;1;59074;9,82;14,45400574510941;20,735911893063143;27,58128604998932;20,735911893063143;14,45400574510941;27,58128604998932;-61,43375957518235;-249,45829645680104;-39,33835871456038
12:07:54.909;0;Wrist;1;59075;9,74;15,517539559617909;18,94381542405469;26,136125904110845;18,94381542405469;15,517539559617909;26,136125904110845;-88,47315897091586;-281,6553239539781;-8,819849238563188
12:07:54.909;0;Wrist;1;59076;9,74;14,111857013153477;14,139372310556352;21,101987136448255;14,139372310556352;14,111857013153477;21,101987136448255;-112,09448530533768;-317,5450910977508;21,881771294289987
12:07:54.909;0;Wrist;1;59077;9,74;12,079299485763116;10,06468684194464;13,726639988402967;10,06468684194464;12,079299485763116;13,726639988402967;-107,85241248817408;-351,1764885402997;43,885616626483966
12:07:54.909;0;Wrist;1;59078;9,74;10,969109546189765;7,657680078279977;8,14219241157262;7,657680078279977;10,969109546189765;8,14219241157262;-79,92797631763665;-369,792779320658;56,550798059022796
12:07:54.909;0;Wrist;1;59079;9,74;10,146037743766595;6,396753021332438;6,8908352916043585;6,396753021332438;10,146037743766595;6,8908352916043585;-51,1490218817713;-370,06744590594195;61,9525742362743
12:07:54.929;0;Mov;1;12746;9,65;-1,760991312715537;-7,0044862208929715;2,6319162572099977;-7,0044862208929715;-1,760991312715537;2,6319162572099977;28,77895443586535;71,23020111697744;16,05273598437452
12:07:54.929;0;Mov;1;12747;9,65;1,074300410855434;-6,555864131595813;2,204828075884274;-6,555864131595813;1,074300410855434;2,204828075884274;22,339548936429946;47,8835413678396;17,670216986602373
12:07:54.929;0;Mov;1;12748;9,65;2,166545705282754;-2,6115787701803646;0,7548814713545641;-2,6115787701803646;2,166545705282754;0,7548814713545641;13,855403302102726;33,53984191412091;11,871700186162908
12:07:54.929;0;Mov;1;12749;9,65;-1,7717581474883266;-4,0196539201025425;1,231019036873989;-4,0196539201025425;-1,7717581474883266;1,231019036873989;6,897183141575366;37,903988769188516;7,263405255287331
12:07:54.929;0;Mov;1;12750;9,65;-1,1879513401440474;-3,392779416028321;1,2226448055589465;-3,392779416028321;-1,1879513401440474;1,2226448055589465;12,482070375682852;36,13391521958068;11,41392254402295
12:07:54.936;0;Wrist;1;59080;9,63;9,800299272133548;5,848835623493149;9,16385387737663;5,848835623493149;9,800299272133548;9,16385387737663;-27,83288064210944;-362,6514481032746;61,098055970946376
12:07:54.936;0;Wrist;1;59081;9,63;7,7665458006530965;5,090365306558428;13,240931234168523;5,090365306558428;7,7665458006530965;13,240931234168523;-8,392590105899227;-362,1021149327067;53,895687734611045
12:07:54.936;0;Wrist;1;59082;9,63;4,650117687002167;3,376030714972381;15,346465193639943;3,376030714972381;4,650117687002167;15,346465193639943;18,768883327738273;-374,7978148747215;33,78398998992889
12:07:54.936;0;Wrist;1;59083;9,63;4,6106386570329905;1,2465713169881283;12,953813097018342;1,2465713169881283;4,6106386570329905;12,953813097018342;58,41242713705863;-392,9563280129398;1,281777397991882
12:07:54.936;0;Wrist;1;59084;9,63;8,724802201910459;-1,1472762468718527;10,534843554490799;-1,1472762468718527;8,724802201910459;10,534843554490799;88,19849238563188;-401,1963255714591;-27,741325113681448
12:07:54.959;0;Mov;1;12751;9,56;0,6484084716521195;-4,303183271279031;1,0982269222846157;-4,303183271279031;0,6484084716521195;1,0982269222846157;20,56947538682211;34,15021210364086;10,406811731315043
12:07:54.959;0;Mov;1;12752;9,56;-1,0443922715689566;-3,273146858882412;1,3685964775917845;-3,273146858882412;-1,0443922715689566;1,3685964775917845;24,506363109225745;32,50221259193701;4,577776421399578
12:07:54.959;0;Mov;1;12753;9,56;-1,3051911746192817;-2,939371881389813;1,5097629427091281;-2,939371881389813;-1,3051911746192817;1,5097629427091281;31,678212836085084;39,063692129276404;9,12503433332316
12:07:54.959;0;Mov;1;12754;9,56;-1,3195471530045473;-2,472804908520768;1,031232714125492;-2,472804908520768;-1,3195471530045473;1,031232714125492;42,87850581377606;45,89983825189978;16,388439588610492
12:07:54.959;0;Mov;1;12755;9,56;2,3184790051728874;-1,7298867524872585;2,48596458517716;-1,7298867524872585;2,3184790051728874;2,48596458517716;50,050355540635394;45,258949552903836;18,951994384594258
12:07:54.996;0;Wrist;1;59085;9,69;13,177526169621876;-3,684682760093997;10,6472975859859;-3,684682760093997;13,177526169621876;10,6472975859859;95,85863826410719;-400,6164738914151;-37,385174108096564
12:07:54.996;0;Wrist;1;59086;9,69;16,478188802758872;-6,578594222083193;11,38184186834315;-6,578594222083193;16,478188802758872;11,38184186834315;99,49034089175085;-392,74269844660785;-19,806512649922176
12:07:54.996;0;Wrist;1;59087;9,69;18,19372005371258;-9,427045503097629;12,878444776757103;-9,427045503097629;18,19372005371258;12,878444776757103;105,38041322061831;-381,7560350352489;19,165623950926236
12:07:54.996;0;Wrist;1;59088;9,69;16,78444776757103;-13,62136352885525;16,028370769371623;-13,62136352885525;16,78444776757103;16,028370769371623;114,16974394970549;-372,8141117587817;64,60768456068605
12:07:54.996;0;Wrist;1;59089;9,69;12,605682737205115;-20,19636944181646;18,13868945890683;-20,19636944181646;12,605682737205115;18,13868945890683;144,16943876461073;-369,39603869747003;106,99789422284616
12:07:55.019;0;Mov;1;12756;9,62;0,9702200742172002;-2,4644306772057254;1,0216620618686483;-2,4644306772057254;0,9702200742172002;1,0216620618686483;48,219244972075565;65,03494369335002;17,27347636341441
12:07:55.019;0;Mov;1;12757;9,62;2,1186926824243906;2,0947661709952086;3,2085451349681082;2,0947661709952086;2,1186926824243906;3,2085451349681082;20,020142216254158;84,26160466322825;18,524735251930295
12:07:55.019;0;Mov;1;12758;9,62;1,2214483846171453;2,737192955183569;4,196710390789514;2,737192955183569;1,2214483846171453;4,196710390789514;-9,094515823847164;154,91195410016175;27,558214056825463
12:07:55.019;0;Mov;1;12759;9,62;0;2,3878659360026857;1,8555010567033907;2,3878659360026857;0,031104465230476736;1,8555010567033907;-10,467848750267036;221,22867519150364;37,75139622180853
12:07:55.019;0;Mov;1;12760;9,62;-0,9989318521683401;4,799658383434553;7,169579435865352;4,799658383434553;-0,9989318521683401;7,169579435865352;-9,460737937559129;247,32200079348124;48,64650410473953
12:07:55.087;0;Wrist;1;59090;9,89;7,950779843287454;-27,291776024658954;16,380090868861966;-27,291776024658954;7,950779843287454;16,380090868861966;194,6775719473861;-370,5557420575579;143,4369945371868
12:07:55.087;0;Wrist;1;59091;9,89;4,3354837755974;-32,76616336558123;12,981329348124637;-32,76616336558123;4,3354837755974;12,981329348124637;245,09414960173345;-361,43070772423476;172,73476363414412
12:07:55.087;0;Wrist;1;59092;9,89;0;-33,219569231238744;8,787011322367016;-33,219569231238744;-0,026319163317180778;8,787011322367016;272,4082155827509;-334,14716025269325;203,1922360911893
12:07:55.087;0;Wrist;1;59093;9,89;-5,763896889400922;-33,56052201910459;5,254262100589007;-33,56052201910459;-5,763896889400922;5,254262100589007;262,5812555314798;-289,1628772850734;231,4523758659627
12:07:55.087;0;Wrist;1;59094;9,89;-10,649690427869503;-33,99718085268715;0;-33,99718085268715;-10,649690427869503;-0,21892758255733666;214,69771416364026;-219,21445356608783;246,19281594286934
12:07:55.144;0;Mov;1;12761;9,98;0;7,139671296578875;16,421962263863033;7,139671296578875;0,02273018548518231;16,421962263863033;6,836146122623371;348,36878566850794;48,371837519455546
12:07:55.144;0;Mov;1;12762;9,98;-2,168938308740501;2,1222817068239386;18,09801400799585;2,1222817068239386;-2,168938308740501;18,09801400799585;-19,77599414044618;540,7574694051942;52,980132450331126
12:07:55.145;0;Mov;1;12763;9,98;-3,5985473666341137;5,310489116336558;23,837982955412457;5,310489116336558;-3,5985473666341137;23,837982955412457;-1,586962492751854;740,6231879634998;65,49272133548997
12:07:55.145;0;Mov;1;12764;9,98;3,0542192316202277;4,1608206236457415;23,735099337748345;4,1608206236457415;3,0542192316202277;23,735099337748345;50,38605914487137;901,272621845149;69,5516830957976
12:07:55.145;0;Mov;1;12765;9,98;6,570220229194006;-9,776372760704367;26,61943990905484;-9,776372760704367;6,570220229194006;26,61943990905484;46,113467818231754;857,997375408185;49,806207464827416
12:07:55.147;0;Mov;1;12766;9,76;11,058833964049196;-17,284512619403667;33,00662251655629;-17,284512619403667;11,058833964049196;33,00662251655629;-18,646809289834284;508,83510849330116;151,24973296304208
12:07:55.147;0;Mov;1;12767;9,76;4,409656151768548;14,127409054841761;33,243495742667925;14,127409054841761;4,409656151768548;33,243495742667925;-3,173924985503708;203,2837916196173;247,07785271767327
12:07:55.147;0;Mov;1;12768;9,76;-6,03665892895291;21,363982818079165;32,83674504837184;21,363982818079165;-6,03665892895291;32,83674504837184;-36,255989257484664;147,28232673116244;291,4212469862972
12:07:55.148;0;Mov;1;12769;9,76;-13,34740459150975;24,32369266335032;27,917453154087955;24,32369266335032;-13,34740459150975;27,917453154087955;-18,463698232978302;94,94308297982727;325,3883480330821
12:07:55.148;0;Mov;1;12770;9,76;-20,26096949674978;23,910960341196937;26,443580813013092;23,910960341196937;-20,26096949674978;26,443580813013092;9,67436750389111;55,97094637897885;324,0455336161382
12:07:55.149;0;Wrist;1;59095;9,94;-15,868062761314738;-34,24960707419049;-7,529673528244881;-34,24960707419049;-15,868062761314738;-7,529673528244881;117,86248359630116;-141,331217383343;235,02304147465438
12:07:55.149;0;Wrist;1;59096;9,94;-22,222943433942685;-34,35009689626759;-15,24597346415601;-34,35009689626759;-22,222943433942685;-15,24597346415601;19,867549668874172;-58,59553819391461;181,82927945799128
12:07:55.149;0;Wrist;1;59097;9,94;-21,771929456465347;-34,336935789056064;-14,075967246009705;-34,336935789056064;-21,771929456465347;-14,075967246009705;-18,82992034669027;9,03347880489517;87,28293710135198
12:07:55.149;0;Wrist;1;59098;9,94;-14,39897515030366;-34,23285622730186;-6,966204088717307;-34,23285622730186;-14,39897515030366;-6,966204088717307;2,0142216254158147;55,726798303170874;-7,232886745811334
12:07:55.149;0;Wrist;1;59099;9,94;-7,051142822809534;-33,853621784112065;-6,364452040162359;-33,853621784112065;-7,051142822809534;-6,364452040162359;42,87850581377606;78,58516190069277;-58,62605670339061
12:07:55.169;0;Mov;1;12771;9,64;-27,234351634266183;22,276778084658346;28,301475188451796;22,276778084658346;-27,234351634266183;28,301475188451796;20,935697500534072;15,594958342234566;284,4630268257698
12:07:55.169;0;Mov;1;12772;9,64;-28,523991363261818;22,36770035401471;25,72937520981475;22,36770035401471;-28,523991363261818;25,72937520981475;31,830805383465073;-41,19998779259621;216,43726920377208
12:07:55.169;0;Mov;1;12773;9,64;-27,222388378551592;21,261099200415053;21,646315271462143;21,261099200415053;-27,222388378551592;21,646315271462143;35,30991546372875;-94,05804620502335;137,39432966093935
12:07:55.169;0;Mov;1;12774;9,64;-25,84900776696066;20,288485747856075;20,281308175908688;20,288485747856075;-25,84900776696066;20,281308175908688;24,01806695760979;-138,18781090731528;60,97598193304239
12:07:55.169;0;Mov;1;12775;9,64;-24,60841700491348;19,29673146763512;20,208332697531052;19,29673146763512;-24,60841700491348;20,208332697531052;7,843256935331278;-174,50483718375196;-14,221625415814692
12:07:55.177;0;Wrist;1;59100;9,85;-2,4189702578051087;-31,854562135685292;-31,780388805810723;-31,854562135685292;-2,4189702578051087;-31,780388805810723;24,323252052369764;191,5036469618824;-74,58723715933714
12:07:55.177;0;Wrist;1;59101;9,85;-26,137321848200934;-32,5998718222602;-24,055715353862116;-32,5998718222602;-26,137321848200934;-24,055715353862116;-134,95284890285959;381,7255165257729;-104,28174687948241
12:07:55.177;0;Wrist;1;59102;9,85;-12,634394932401502;-8,2761801126133;26,971160008545183;-8,2761801126133;-12,634394932401502;26,971160008545183;-112,46070741904965;292,58095034638507;-136,17358928189947
12:07:55.177;0;Wrist;1;59103;9,85;23,6740871150853;7,984277245399334;32,45392086550493;7,984277245399334;23,6740871150853;32,45392086550493;-131,01596118045595;388,8363292336802;43,305764946440014
12:07:55.177;0;Wrist;1;59104;9,85;-18,44734031189917;10,07665009765923;-15,084469512009033;10,07665009765923;-18,44734031189917;-15,084469512009033;-169,89654225287637;432,93557542649614;37,44621112704856
12:07:55.210;0;Wrist;1;59105;9,78;3,998120250556963;8,29651783806879;15,16821230201117;8,29651783806879;3,998120250556963;15,16821230201117;-161,80913724173712;464,33912167729727;-23,285622730185857
12:07:55.210;0;Wrist;1;59106;9,78;11,959666928617207;-18,680623798333688;-4,140482898190252;-18,680623798333688;11,959666928617207;-4,140482898190252;-132,29773857844782;402,44758445997496;-98,81893368327891
12:07:55.210;0;Wrist;1;59107;9,78;-9,825421727652822;0;9,940269554734947;-0,3098483170472579;-9,825421727652822;9,940269554734947;-103,3356730857265;86,24530777916806;-87,58812219611194
12:07:55.210;0;Wrist;1;59108;9,78;0,6208929954298532;4,441957132938628;6,02589209418012;4,441957132938628;0,6208929954298532;6,02589209418012;-44,70961638233589;80,08056886501663;-45,411542100283825
12:07:55.210;0;Wrist;1;59109;9,78;-0,891262550737022;3,1032686754203924;7,280837523270363;3,1032686754203924;-0,891262550737022;7,280837523270363;-35,584582049012724;59,69420453505051;-42,756431775872066
12:07:55.229;0;Mov;1;12776;9,69;-19,672378078554644;17,819269386883146;16,75812936796167;17,819269386883146;-19,672378078554644;16,75812936796167;1,6785180211798456;-215,67430646687217;-80,56886501663259
12:07:55.229;0;Mov;1;12777;9,69;-12,616450048829615;15,504379406109805;12,393932920316171;15,504379406109805;-12,616450048829615;12,393932920316171;-6,40888698995941;-255,3483687856685;-119,510483108005
12:07:55.229;0;Mov;1;12778;9,69;-7,529673528244881;12,07331785790582;12,153471861934262;12,07331785790582;-7,529673528244881;12,153471861934262;-38,08709982604449;-285,7753227332377;-131,10751670888394
12:07:55.229;0;Mov;1;12779;9,69;-5,18128614535966;7,260499797814875;13,14881492812891;7,260499797814875;-5,18128614535966;13,14881492812891;-85,20767845698415;-316,3243507187109;-131,07699819940794
12:07:55.229;0;Mov;1;12780;9,69;-4,403674523911252;2,9142491874446854;11,278957296975616;2,9142491874446854;-4,403674523911252;11,278957296975616;-112,27759636219368;-347,0564897610401;-125,40055543687247
12:07:55.236;0;Wrist;1;59110;9,68;-2,3986327707754755;5,178893303476058;6,896816919461654;5,178893303476058;-2,3986327707754755;6,896816919461654;-20,691549424726098;38,17865535447249;-36,9884334849086
12:07:55.236;0;Wrist;1;59111;9,68;-0,6950651927816095;4,172783879360332;6,402734649189734;4,172783879360332;-0,6950651927816095;6,402734649189734;-6,500442518387402;38,666951506088445;-24,384289071321756
12:07:55.236;0;Wrist;1;59112;9,68;0;3,6392223406933804;6,462550927762688;3,6392223406933804;-0,3062593522541734;6,462550927762688;0,3357036042359691;30,915250099185155;-16,113773003326518
12:07:55.237;0;Wrist;1;59113;9,68;1,0527665028839992;4,6895962401196325;5,1705193105868705;4,6895962401196325;1,0527665028839992;5,1705193105868705;-2,838221381267739;22,522659993285927;-9,552293465987121
12:07:55.237;0;Wrist;1;59114;9,68;1,0778893160420544;5,676564836573382;5,419354838709677;5,676564836573382;1,0778893160420544;5,419354838709677;-16,2968840601825;12,970366527298808;-10,742515335551012
12:07:55.259;0;Mov;1;12781;9,62;-3,4454176458021792;0,661568029095584;7,438752689443648;0,661568029095584;-3,4454176458021792;7,438752689443648;-106,29596850489823;-367,4123355815302;-112,46070741904965
12:07:55.259;0;Mov;1;12782;9,62;-3,228882860423597;-1,6760521017715995;6,8980133404034545;-1,6760521017715995;-3,228882860423597;6,8980133404034545;-87,09982604449598;-374,46211127048554;-95,43137913144322
12:07:55.259;0;Mov;1;12783;9,62;-3,033881744590594;-4,043580431531724;9,0765223014008;-4,043580431531724;-3,033881744590594;9,0765223014008;-70,89449751274148;-378,70418408764914;-81,11819818720053
12:07:55.259;0;Mov;1;12784;9,62;-2,110318451109348;-5,763896889400922;10,202264282662435;-5,763896889400922;-2,110318451109348;10,202264282662435;-71,7184972685934;-389,90447706534013;-70,98605304116947
12:07:55.259;0;Mov;1;12785;9,62;-2,5063020722067932;-7,80363198873867;9,48446893978698;-7,80363198873867;-2,5063020722067932;9,48446893978698;-94,08856471449934;-401,83721427045504;-64,2719809564501
12:07:55.349;0;Mov;1;12786;9,79;-4,732664056062502;-9,192566072573015;8,2761801126133;-9,192566072573015;-4,732664056062502;8,2761801126133;-115,2684102908414;-407,4831385235145;-62,25775933103427
12:07:55.349;0;Mov;1;12787;9,79;-6,528348834192938;-9,776372760704367;8,441273804437392;-9,776372760704367;-6,528348834192938;8,441273804437392;-122,98959318826869;-405,3773613696707;-69,91790520950957
12:07:55.349;0;Mov;1;12788;9,79;-6,2519975318155465;-10,004870563371686;8,850416386913663;-10,004870563371686;-6,2519975318155465;8,850416386913663;-131,3821832941679;-400,55543687246313;-88,0153813287759
12:07:55.350;0;Mov;1;12789;9,79;-6,473317762535478;-10,762145413068026;9,179405919064912;-10,762145413068026;-6,473317762535478;9,179405919064912;-152,40943632312997;-395,24521622363966;-109,50041199987793
12:07:55.350;0;Mov;1;12790;9,79;-8,09912411877804;-12,396325762199774;10,43794061098056;-12,396325762199774;-8,09912411877804;10,43794061098056;-169,3472090823084;-390,1791436506241;-135,74633014923552
12:07:55.352;0;Mov;1;12791;9,61;-6,720957346568194;-14,702841273232215;10,896133114108707;-14,702841273232215;-6,720957346568194;10,896133114108707;-168,6758018738365;-386,8221076082644;-167,5771355327006
12:07:55.352;0;Mov;1;12792;9,61;-2,3687246314889983;-17,892244865260782;12,082888271736808;-17,892244865260782;-2,3687246314889983;12,082888271736808;-171,33091219824823;-380,87099826044494;-194,25031281472212
12:07:55.352;0;Mov;1;12793;9,61;1,0144841322824794;-21,70972128971221;14,541337321085239;-21,70972128971221;1,0144841322824794;14,541337321085239;-183,17209387493514;-374,6147038178655;-208,7466048158208
12:07:55.353;0;Mov;1;12794;9,61;4,0782737777336955;-25,69348544267098;15,816620952482682;-25,69348544267098;4,0782737777336955;15,816620952482682;-185,24735251930295;-372,32581560716574;-210,21149327066865
12:07:55.353;0;Mov;1;12795;9,61;7,411236915189062;-29,49421102023377;15,896774956511123;-29,49421102023377;7,411236915189062;15,896774956511123;-176,21387371440778;-370,25055696279793;-200,38453321939755
12:07:55.375;0;Wrist;1;59115;10,06;0,7142063780823694;5,436103301339762;5,728007122257149;5,436103301339762;0,7142063780823694;5,728007122257149;-24,811548203985716;6,8666646320993685;-14,89303262428663
12:07:55.375;0;Wrist;1;59116;10,06;0,7800042845126194;6,220892971587268;5,101132141331218;6,220892971587268;0,7800042845126194;5,101132141331218;-25,57451094088565;0,640888698995941;-19,440290536210213
12:07:55.375;0;Wrist;1;59117;10,06;1,0144841322824794;5,239906002990814;5,1262550737022;5,239906002990814;1,0144841322824794;5,1262550737022;-28,107547227393415;-3,662221137119663;-24,933622241889704
12:07:55.375;0;Wrist;1;59118;10,06;-1,594702034440138;5,382268650624104;5,353556932279427;5,382268650624104;-1,594702034440138;5,353556932279427;-30,4269539475692;-14,465773491622668;-26,886806848353526
12:07:55.375;0;Wrist;1;59119;10,06;-1,4930143608661153;5,867976928006836;7,831147286141545;5,867976928006836;-1,4930143608661153;7,831147286141545;-31,708731345561084;-19,196142460402235;-18,341624195074314
12:07:55.414;0;Mov;1;12796;9,82;11,538560136722923;-33,917027802362135;14,31283951841792;-33,917027802362135;11,538560136722923;14,31283951841792;-167,3024689474166;-363,2312997833186;-183,62987151707512
12:07:55.414;0;Mov;1;12797;9,82;16,419568468276008;-38,78009125034333;11,350736831263161;-38,78009125034333;16,419568468276008;11,350736831263161;-167,69920957060458;-348,94863734855187;-164,49476607562485
12:07:55.414;0;Mov;1;12798;9,82;19,11010505996887;-39,201197088534194;8,101516960661641;-39,201197088534194;19,11010505996887;8,101516960661641;-161,83965575121312;-321,54301583910643;-139,74425489059115
12:07:55.414;0;Mov;1;12799;9,82;20,432044816431166;-39,201197088534194;2,7216406750694295;-39,201197088534194;20,432044816431166;2,7216406750694295;-114,32233649708549;-282,387768181402;-97,96441541795099
12:07:55.414;0;Mov;1;12800;9,82;21,39389095736564;-39,201197088534194;-4,562785634174627;-39,201197088534194;21,39389095736564;-4,562785634174627;-48,890652180547505;-232,6425977355266;-37,04947050386059
12:07:55.446;0;Wrist;1;59120;10,14;-2,6115787701803646;5,8847253906369215;8,349156544694358;5,8847253906369215;-2,6115787701803646;8,349156544694358;-16,541032135990477;15,991698965422529;-9,949034089175084
12:07:55.446;0;Wrist;1;59121;10,14;-2,926212443159276;7,798846781823176;9,464132168034913;7,798846781823176;-2,926212443159276;9,464132168034913;3,173924985503708;57,40531632435072;1,0071108127079074
12:07:55.446;0;Wrist;1;59122;10,14;-0,5383465071565905;10,23935094759972;5,108310190130314;10,23935094759972;-0,5383465071565905;5,108310190130314;24,170659504989775;101,87078463087863;5,798516800439467
12:07:55.446;0;Wrist;1;59123;10,14;-1,9727408911786248;8,22234546189764;11,408161221655934;8,22234546189764;-1,9727408911786248;11,408161221655934;40,68117313150426;104,86159855952636;-13,275551622058778
12:07:55.446;0;Wrist;1;59124;10,14;0;11,830463957640308;7,8801967299417095;11,830463957640308;0,10527665326872311;7,8801967299417095;57,13064973906675;208,53297524948883;-5,1576281014435255
12:07:55.450;0;Wrist;1;59125;9,95;-0,5610767168568987;13,403632084109011;10,804016808069093;13,403632084109011;-0,5610767168568987;10,804016808069093;68,39197973570971;232,7951902829066;-33,448286385692924
12:07:55.450;0;Wrist;1;59126;9,95;0;13,051911984618672;16,10134624774926;13,051911984618672;-0,03349711525577372;16,10134624774926;121,58574175237281;303,2624286629841;-81,20975371562852
12:07:55.450;0;Wrist;1;59127;9,95;3,1259987659077733;10,223798905911435;16,134844126712853;10,223798905911435;3,1259987659077733;16,134844126712853;173,80291146580402;456,74001281777396;-116,70278023621326
12:07:55.450;0;Wrist;1;59128;9,95;0,7405255525757622;12,770775475325784;19,31707014679403;12,770775475325784;0,7405255525757622;19,31707014679403;194,4944608905301;604,5716727195044;-145,57329020050662
12:07:55.450;0;Wrist;1;59129;9,95;1,19632557145909;11,570861117893003;14,64182905056917;11,570861117893003;1,19632557145909;14,64182905056917;214,1788995025483;728,8125247962889;-173,83342997528
12:07:55.451;0;Wrist;1;59130;9,95;-3,666737876522111;7,774920270393994;11,824482329783013;7,774920270393994;-3,666737876522111;11,824482329783013;220,7403790398877;768,2119205298013;-224,46363719595934
12:07:55.451;0;Wrist;1;59131;9,95;-15,219654110843226;-0,727365935525834;14,079556031983397;-0,727365935525834;-15,219654110843226;14,079556031983397;239,44822534867396;851,5579699087497;-341,3190099795526
12:07:55.451;0;Wrist;1;59132;9,95;12,742064233832819;-25,92796487319559;39,15932569353313;-25,92796487319559;12,742064233832819;39,15932569353313;134,40351573229162;758,6596270638142;-457,41142002624593
12:07:55.451;0;Wrist;1;59133;9,95;28,48570780053102;6,886050084688864;39,19999923703726;6,886050084688864;28,48570780053102;39,19999923703726;5,371257667775506;116,1839655751213;-343,4247871333964
12:07:55.451;0;Wrist;1;59134;9,95;19,094552064577165;5,797393814661092;39,19999923703726;5,797393814661092;19,094552064577165;39,19999923703726;40,13183996093631;61,64738914151433;-273,9646595660268
12:07:55.470;0;Mov;1;12801;9,96;18,62439725943785;-39,201197088534194;-11,926170003357036;-39,201197088534194;18,62439725943785;-11,926170003357036;-18,311105685598314;-163,45713675344095;25,42191839350566
12:07:55.470;0;Mov;1;12802;9,96;12,024268890957366;-39,201197088534194;-15,357231551561021;-39,201197088534194;12,024268890957366;-15,357231551561021;-4,425183874019593;-94,88204596087527;64,0583513901181
12:07:55.470;0;Mov;1;12803;9,96;8,18765259254738;-39,201197088534194;-16,40880115665151;-39,201197088534194;8,18765259254738;-16,40880115665151;-2,380443739127781;-32,532731101413006;68,39197973570971
12:07:55.471;0;Mov;1;12804;9,96;6,627643665883358;-39,201197088534194;-18,180560853907895;-39,201197088534194;6,627643665883358;-18,180560853907895;-13,061922055726798;30,64058351390118;46,26606036561174
12:07:55.471;0;Mov;1;12805;9,96;6,415894325846126;-39,201197088534194;-16,97107417523728;-39,201197088534194;6,415894325846126;-16,97107417523728;-9,613330484939116;94,21063875240333;20,844141972106083
12:07:55.498;0;Mov;1;12806;9,72;6,421875953703421;-39,201197088534194;-10,17355304116947;-39,201197088534194;6,421875953703421;-10,17355304116947;-1,0071108127079074;144,7187719351787;10,803552354503006
12:07:55.498;0;Mov;1;12807;9,72;5,058064802240058;-39,201197088534194;-10,321896839808344;-39,201197088534194;5,058064802240058;-10,321896839808344;-10,345774712363049;194,03668324839015;11,780144657734915
12:07:55.498;0;Mov;1;12808;9,72;5,705276554918058;-21,848494674520097;-17,318008590960417;-21,848494674520097;5,705276554918058;-17,318008590960417;-17,334513382366406;240,5163731803339;32,19702749717704
12:07:55.498;0;Mov;1;12809;9,72;-17,172057634205146;18,09920995208594;3,773210995437483;18,09920995208594;-17,172057634205146;3,773210995437483;-3,814813684499649;262,9169591357158;105,28885769219032
12:07:55.498;0;Mov;1;12810;9,72;-17,247426908169803;12,40350333414716;8,575261505478073;12,40350333414716;-17,247426908169803;8,575261505478073;100,43641468550676;442,06060975981933;212,31727042451246
12:07:55.536;0;Wrist;1;59135;10,04;18,271481215857417;5,649049539170507;28,191412091433456;5,649049539170507;18,271481215857417;28,191412091433456;0,21362956633198035;31,09836115604114;-239,60081789605397
12:07:55.536;0;Wrist;1;59136;10,04;16,48297448652608;9,57060457167272;17,721171452986237;9,57060457167272;16,48297448652608;17,721171452986237;-53,19376201666311;-15,167699209570605;-218,3904538102359
12:07:55.536;0;Wrist;1;59137;10,04;17,195984145634327;13,392864772484511;14,475539414654989;13,392864772484511;17,195984145634327;14,475539414654989;-68,33094271675772;-1,7090365306558428;-204,1993469038972
12:07:55.536;0;Wrist;1;59138;10,04;20,991925946836755;17,140953550828577;22,946720404675435;17,140953550828577;20,991925946836755;22,946720404675435;-79,83642078920866;8,941923276467177;-193,21268349253822
12:07:55.536;0;Wrist;1;59139;10,04;25,29032258064516;20,45956106753746;34,71258430738243;20,45956106753746;25,29032258064516;34,71258430738243;-85,54338206122013;5,645924253059481;-173,31461531418805
12:07:55.559;0;Mov;1;12811;9,95;-7,280837523270363;-39,201197088534194;27,696132923368022;-39,201197088534194;-7,280837523270363;27,696132923368022;136,08203375347148;671,7123935666982;174,44380016479994
12:07:55.559;0;Mov;1;12812;9,95;1,1030122484130376;-38,83511993774224;29,842341380047;-38,83511993774224;1,1030122484130376;29,842341380047;401,59306619464707;621,3568529313028;80,08056886501663
12:07:55.559;0;Mov;1;12813;9,95;31,441829813531907;2,4417005867183446;20,946464812158574;2,4417005867183446;31,441829813531907;20,946464812158574;349,8947111423078;455,4277169103061;24,597918637653738
12:07:55.559;0;Mov;1;12814;9,95;-2,512283700064089;-23,10463652455214;-1,0240546653263956;-23,10463652455214;-2,512283700064089;-1,0240546653263956;141,48380993072297;467,543565172277;69,33805352946563
12:07:55.559;0;Mov;1;12815;9,95;-7,534458735160375;-26,272505493331707;-3,311429229483932;-26,272505493331707;-7,534458735160375;-3,311429229483932;54,17035431989502;268,71547593615526;70,80294198431349
12:07:55.566;0;Wrist;1;59140;9,96;28,28353030487991;21,992053743095187;39,19999923703726;21,992053743095187;28,28353030487991;39,19999923703726;-84,8719748527482;-23,163548692281868;-134,09833063753166
12:07:55.566;0;Wrist;1;59141;9,96;26,908951841792046;23,127367091891234;39,19999923703726;23,127367091891234;26,908951841792046;39,19999923703726;-82,09479049043244;-72,42042298654134;-82,15582750938444
12:07:55.566;0;Wrist;1;59142;9,96;23,782952360606707;24,194488738670003;38,02879802850429;24,194488738670003;23,782952360606707;38,02879802850429;-71,10812707907345;-106,35700552385022;-32,227546006653036
12:07:55.566;0;Wrist;1;59143;9,96;24,066482665486618;25,191028702658162;35,28801461836604;25,191028702658162;24,066482665486618;35,28801461836604;-71,07760856959746;-110,53804132206183;6,836146122623371
12:07:55.566;0;Wrist;1;59144;9,96;24,35838457899716;26,021277123325298;36,079985198522905;26,021277123325298;24,35838457899716;36,079985198522905;-103,54930265205847;-96,25537888729515;42,3596911526841
12:07:55.606;0;Wrist;1;59145;10;21,990857799005095;26,35624828333384;39,19999923703726;26,35624828333384;21,990857799005095;39,19999923703726;-144,01684621723075;-90,06012146366771;69,88738670003357
12:07:55.607;0;Wrist;1;59146;10;20,94287507248146;25,60495696890164;39,19999923703726;25,60495696890164;20,94287507248146;39,19999923703726;-148,19788201544236;-113,98663289284951;89,81597338785974
12:07:55.607;0;Wrist;1;59147;10;21,474044007690665;22,355737098300118;39,19999923703726;22,355737098300118;21,474044007690665;39,19999923703726;-120,05981627857295;-165,99017303994873;116,06189153721732
12:07:55.607;0;Wrist;1;59148;10;22,17030663472396;18,76795632801294;39,19999923703726;18,76795632801294;22,17030663472396;39,19999923703726;-90,94515823847163;-223,21237830744346;145,05447553941465
12:07:55.607;0;Wrist;1;59149;10;20,807691427350687;14,232685514389477;36,85759681997131;14,232685514389477;20,807691427350687;36,85759681997131;-73,33597827082126;-265,5415509506516;175,81713309121983
12:07:55.649;0;Mov;1;12816;10,08;5,945738090151677;0;0;0,19500107112815485;5,945738090151677;0,3732535902165288;40,00976592303232;89,02249214148381;45,564134647663806
12:07:55.649;0;Mov;1;12817;10,08;0;-4,279256759849849;5,281777397991882;-4,279256759849849;0,45580004868655966;5,281777397991882;25,055696279793693;79,74486526078066;31,342509231849117
12:07:55.650;0;Mov;1;12818;10,08;2,2742150067140723;-5,212390705587939;1,6581072181997132;-5,212390705587939;2,2742150067140723;1,6581072181997132;9,155552842799157;81,63701284829249;32,10547196874904
12:07:55.650;0;Mov;1;12819;10,08;0;-6,4960478530228585;1,001324574839015;-6,4960478530228585;0,0119632557145909;1,001324574839015;4,119998779259621;58,62605670339061;20,844141972106083
12:07:55.650;0;Mov;1;12820;10,08;0;-4,06152531510361;0,6759239478743858;-4,06152531510361;-0,17825251908837397;0,6759239478743858;5,523850215155492;31,800286873989073;14,55732902005066
12:07:55.686;0;Mov;1;12821;9,87;0;-3,4334543900875882;0;-3,4334543900875882;-0,3098483170472579;0,26438795725310527;7,324442274239326;21,05777153843806;13,977477340006715
12:07:55.686;0;Mov;1;12822;9,87;0;-2,9680838381603443;1,0719076881847591;-2,9680838381603443;-0,119632557145909;1,0719076881847591;13,214514603106783;11,505478072450941;17,3955504013184
12:07:55.686;0;Mov;1;12823;9,87;0,7524888082903531;-2,6390943060090946;0,581414263492996;-2,6390943060090946;0,7524888082903531;0,581414263492996;10,895107882930997;12,054811243018891;16,876735740226447
12:07:55.686;0;Mov;1;12824;9,87;0;-2,630720074694052;0;-2,630720074694052;0,33736382307275614;0,363682967762917;8,056886501663259;12,543107394634847;10,162663655507066
12:07:55.687;0;Mov;1;12825;9,87;-1,442768615337077;-2,19525742362743;0,5000640769486069;-2,19525742362743;-1,442768615337077;0,5000640769486069;9,918515579699088;13,336588641010772;6,500442518387402
12:07:55.687;0;Wrist;1;59150;9,96;15,832172994170964;8,898269409772027;36,39222388378552;8,898269409772027;15,832172994170964;36,39222388378552;-57,03909421063875;-309,8239082003235;203,86364329966125
12:07:55.687;0;Wrist;1;59151;9,96;10,024012344737082;2,7742791432691427;38,234565263832515;2,7742791432691427;10,024012344737082;38,234565263832515;-27,008880886257515;-358,80611590929897;215,49119541001616
12:07:55.687;0;Wrist;1;59152;9,96;8,338389233069856;-4,9061312639240695;38,52886288033692;-4,9061312639240695;8,338389233069856;38,52886288033692;8,636738181707205;-412,884914700766;212,0731223487045
12:07:55.687;0;Wrist;1;59153;9,96;7,675624961851863;-11,599573313089389;37,67707983642079;-11,599573313089389;7,675624961851863;37,67707983642079;22,247993408001953;-466,1091952269051;206,427198095645
12:07:55.687;0;Wrist;1;59154;9,96;4,498184148686178;-16,977055803094576;36,75471129490036;-16,977055803094576;4,498184148686178;36,75471129490036;20,203253273110143;-504,0437025055696;194,92172002319407
12:07:55.688;0;Wrist;1;59155;9,84;4,147660946989349;-22,12604144413587;35,87302011169774;-22,12604144413587;4,147660946989349;35,87302011169774;29,02310251167333;-532,517471846675;175,23728141117587
12:07:55.688;0;Wrist;1;59156;9,84;8,24148724326304;-29,302798928800318;34,97338404492324;-29,302798928800318;8,24148724326304;34,97338404492324;40,040284432508315;-559,7705008087405;163,82335886715293
12:07:55.688;0;Wrist;1;59157;9,84;2,9441573267311623;-30,771887493514818;32,75420010986664;-30,771887493514818;2,9441573267311623;32,75420010986664;47,42576372569964;-579,0581987975708;173,07046723838008
12:07:55.688;0;Wrist;1;59158;9,84;-0,6244819602229377;-31,262380977813045;28,844605471968748;-31,262380977813045;-0,6244819602229377;28,844605471968748;56,94753868221076;-571,6116824854274;158,14691610461745
12:07:55.688;0;Wrist;1;59159;9,84;2,259859147541734;-31,886862163151953;22,288741340372937;-31,886862163151953;2,259859147541734;22,288741340372937;53,68205816827906;-547,9293191320536;126,95699942014832
12:07:55.709;0;Mov;1;12826;9,72;-1,9320657979064302;-2,5756890030365915;0,7823969475768303;-2,5756890030365915;-1,9320657979064302;0,7823969475768303;18,463698232978302;17,975402081362347;12,329477828302865
12:07:55.710;0;Mov;1;12827;9,72;-2,100747798852504;-2,8376842078157902;1,4343943840220343;-2,8376842078157902;-2,100747798852504;1,4343943840220343;31,40354625080111;26,917325357829522;20,56947538682211
12:07:55.710;0;Mov;1;12828;9,72;-2,140226590395825;-3,273146858882412;1,1723990600299081;-3,273146858882412;-2,140226590395825;1,1723990600299081;47,30368968779565;43,488876003296;28,77895443586535
12:07:55.710;0;Mov;1;12829;9,72;1,4726767546235542;-2,1067294267097996;2,380687887203589;-2,1067294267097996;1,4726767546235542;2,380687887203589;63,81420331431013;54,78072450941496;31,983397930845058
12:07:55.710;0;Mov;1;12830;9,72;0,7728263549264504;-3,1535143017365033;2,779064350184637;-3,1535143017365033;0,7728263549264504;2,779064350184637;70,7724234748375;80,75197607348858;22,186956389049957
12:07:55.746;0;Wrist;1;59160;8,9;1,3578295236060671;-32,49459440900906;9,959410382396923;-32,49459440900906;1,3578295236060671;9,959410382396923;49,9893185216834;-516,6478469191564;108,767967772454
12:07:55.746;0;Wrist;1;59161;8,9;2,0995513779107027;-33,04490417188025;0;-33,04490417188025;2,0995513779107027;0,22969452164143803;65,43168431653798;-466,1091952269051;100,19226660969878
12:07:55.746;0;Wrist;1;59162;8,9;3,0350779271065402;-33,55454039124729;-6,342918370616779;-33,55454039124729;3,0350779271065402;-6,342918370616779;75,65538499099704;-403,69884334849087;113,46781823175756
12:07:55.746;0;Wrist;1;59163;8,9;0;-34,01990951261941;-8,4185432370983;-34,01990951261941;0,21892758255733666;-8,4185432370983;69,76531266212959;-338,60286263618883;140,01892147587512
12:07:55.746;0;Wrist;1;59164;8,9;-2,0887845431379133;-34,43862346263008;-7,435163426618244;-34,43862346263008;-2,0887845431379133;-7,435163426618244;71,44383068330943;-281,8689535203101;161,29032258064515
12:07:55.769;0;Mov;1;12831;9,95;0,5168126587916196;0;4,122538014618366;0,46417433960806603;0,5168126587916196;4,122538014618366;54,200872829371015;103,94604327524644;21,118808557390057
12:07:55.769;0;Mov;1;12832;9,95;0,835035236957152;5,199231028931547;7,016449476607563;5,199231028931547;0,835035236957152;7,016449476607563;32,227546006653036;160,10010071108127;47,60887478255562
12:07:55.769;0;Mov;1;12833;9,95;-1,5994873605685598;11,143772698141422;9,157872249519334;11,143772698141422;-1,5994873605685598;9,157872249519334;49,89776299325541;286,8129520554216;67,96472060304575
12:07:55.769;0;Mov;1;12834;9,95;-3,139158442564165;5,821320326090274;18,062124240852075;5,821320326090274;-3,139158442564165;18,062124240852075;44,587542344431895;418,07306131168554;93,4781945249794
12:07:55.769;0;Mov;1;12835;9,95;-1,841145078318125;8,334800447096164;30,305320520645772;8,334800447096164;-1,841145078318125;30,305320520645772;-52,03405865657521;608,691671498764;142,5519577623829
12:07:55.802;0;Mov;1;12836;9,73;1,1066011535996583;3,2611836031678214;31,086519974364453;3,2611836031678214;1,1066011535996583;31,086519974364453;-37,17154454176458;941,8927579577013;165,74602496414076
12:07:55.802;0;Mov;1;12837;9,73;-12,121170880764183;-22,712240974150824;31,755266350291453;-22,712240974150824;-12,121170880764183;31,755266350291453;20,020142216254158;876,3695181127354;68,23938718832972
12:07:55.802;0;Mov;1;12838;9,73;-24,5844904934843;-3,90719941175573;32,307969908749655;-3,90719941175573;-24,5844904934843;32,307969908749655;-23,346659749137853;333,1400494399854;-28,38221381267739
12:07:55.802;0;Mov;1;12839;9,73;1,735868380344554;26,85870502334666;24,054519409772027;26,85870502334666;1,735868380344554;24,054519409772027;15,44236579485458;85,51286355174413;-13,672292245246743
12:07:55.802;0;Mov;1;12840;9,73;16,029566713461715;36,02973647267068;11,621106982634968;36,02973647267068;16,029566713461715;11,621106982634968;20,264290292062135;118,01507614368114;24,65895565660573
12:07:55.809;0;Wrist;1;59165;9,14;-4,272078711050752;-34,7759903256325;-7,8455033837397385;-34,7759903256325;-4,272078711050752;-7,8455033837397385;73,45805230872524;-243,07992797631763;174,74898525955993
12:07:55.809;0;Wrist;1;59166;9,14;-7,9316385387737665;-33,30211416974395;-10,764537301248208;-33,30211416974395;-7,9316385387737665;-10,764537301248208;70,98605304116947;-222,20526749473555;182,01239051484725
12:07:55.809;0;Wrist;1;59167;9,14;-12,20371772667623;-30,11989005706961;-14,314035462508011;-30,11989005706961;-12,20371772667623;-14,314035462508011;70,86397900326548;-206,701864680929;181,3409833063753
12:07:55.809;0;Wrist;1;59168;9,14;-15,750823046052432;-27,56214522232734;-16,465029602954193;-27,56214522232734;-15,750823046052432;-16,465029602954193;70,16205328531754;-190,83223975341045;167,69920957060458
12:07:55.809;0;Wrist;1;59169;9,14;-17,30963507492294;-24,970904416028322;-16,94355983153783;-24,970904416028322;-17,30963507492294;-16,94355983153783;63,38694418164617;-176,39698477126376;143,22336497085482
12:07:55.835;0;Wrist;1;59170;9,25;-16,66122737815485;-22,056655705435347;-15,63956495864742;-22,056655705435347;-16,66122737815485;-15,63956495864742;47,02902310251167;-161,68706320383313;113,25418866542559
12:07:55.835;0;Wrist;1;59171;9,25;-14,505447553941465;-19,256056016724145;-13,537620738853114;-19,256056016724145;-14,505447553941465;-13,537620738853114;25,269325846125675;-144,4746238593707;85,20767845698415
12:07:55.836;0;Wrist;1;59172;9,25;-11,694082461012604;-17,003376110110782;-11,593591685232093;-17,003376110110782;-11,694082461012604;-11,593591685232093;4,821924497207556;-127,65892513809625;63,57005523850215
12:07:55.836;0;Wrist;1;59173;9,25;-8,61593695638905;-15,426618243964965;-10,128092860194709;-15,426618243964965;-8,61593695638905;-10,128092860194709;-12,604144413586841;-113,83404034546953;47,18161564989166
12:07:55.836;0;Wrist;1;59174;9,25;-5,769878517258217;-14,172869235816522;-9,52753723258156;-14,172869235816522;-5,769878517258217;-9,52753723258156;-24,262215033417768;-102,38959929197058;34,882656331064794
12:07:55.888;0;Mov;1;12841;9,44;7,8490921697134315;34,79273735770745;32,27208014160588;34,79273735770745;7,8490921697134315;32,27208014160588;-54,78072450941496;124,45448164311655;119,66307565538499
12:07:55.888;0;Mov;1;12842;9,44;-9,552659688100833;34,030678731650745;32,51493499557482;34,030678731650745;-9,552659688100833;32,51493499557482;-143,6811426129948;19,98962370677816;163,21298867763298
12:07:55.888;0;Mov;1;12843;9,44;-16,52843371379742;31,22529526657918;29,66887417218543;31,22529526657918;-16,52843371379742;29,66887417218543;-135,16647846919156;-97,720267342143;152,50099185155798
12:07:55.888;0;Mov;1;12844;9,44;-14,943303285317546;26,34428502761925;22,484939115573596;26,34428502761925;-14,943303285317546;22,484939115573596;-96,46900845362713;-169,4692831202124;117,4047059541612
12:07:55.888;0;Mov;1;12845;9,44;-13,233753662221137;21,5470194860683;19,04191526535844;21,5470194860683;-13,233753662221137;19,04191526535844;-98,11700796533097;-223,60911893063144;65,279091769158
12:07:55.896;0;Wrist;1;59175;9,48;-3,499252296517838;-13,080624179815057;-9,129161008026369;-13,080624179815057;-3,499252296517838;-9,129161008026369;-28,931546983245337;-91,43345439008759;25,818659016693626
12:07:55.896;0;Wrist;1;59176;9,48;-1,8172185668889431;-11,738346697897274;-9,77996154667806;-11,738346697897274;-1,8172185668889431;-9,77996154667806;-25,63554795983764;-80,56886501663259;21,240882595294046
12:07:55.896;0;Wrist;1;59177;9,48;-0,7704336918622394;-10,07425820947905;-11,089938047425763;-10,07425820947905;-0,7704336918622394;-11,089938047425763;-18,06695760979034;-65,18753624073;20,599993896298106
12:07:55.896;0;Wrist;1;59178;9,48;0;-8,26541375469222;-11,835248687704093;-8,26541375469222;-0,4665669728690451;-11,835248687704093;-9,094515823847164;-44,22132023071993;23,194067201757868
12:07:55.897;0;Wrist;1;59179;9,48;-0,6220892971587267;-6,510403950621051;-10,754966887417218;-6,510403950621051;-0,6220892971587267;-10,754966887417218;1,7090365306558428;-21,85125278481399;27,466658528397474
12:07:55.919;0;Mov;1;12846;9,56;-11,836445585497604;19,431917020172733;13,738603244117558;19,431917020172733;-11,836445585497604;13,738603244117558;-107,15048677022614;-275,82628864406263;15,625476851710562
12:07:55.919;0;Mov;1;12847;9,56;-8,862379642628254;18,071693700979644;8,207990318002869;18,071693700979644;-8,862379642628254;8,207990318002869;-96,16382335886715;-317,6976836451308;-20,630512405774102
12:07:55.919;0;Mov;1;12848;9,56;-5,29015186773278;15,89318521683401;4,056740108188116;15,89318521683401;-5,29015186773278;4,056740108188116;-83,07138279366436;-346,90389721366006;-45,07583849604785
12:07:55.919;0;Mov;1;12849;9,56;-2,4010253742332224;13,096176221503342;0,9462935627880185;13,096176221503342;-2,4010253742332224;0,9462935627880185;-79,74486526078066;-366,61885433515425;-59,57213049714652
12:07:55.919;0;Mov;1;12850;9,56;-0,7381328895115512;10,632941488387708;-1,597094637897885;10,632941488387708;-0,7381328895115512;-1,597094637897885;-82,18634601886043;-379,07040620136115;-66,62190618610187
12:07:55.959;0;Wrist;1;59180;9,71;-1,0946378978850673;-4,962358756523331;-8,388635097811823;-4,962358756523331;-1,0946378978850673;-8,388635097811823;12,970366527298808;-3,2349620044557024;32,654805139317
12:07:55.959;0;Wrist;1;59181;9,71;-2,024182819223609;-3,8653280167546615;-5,281777397991882;-3,8653280167546615;-2,024182819223609;-5,281777397991882;21,820734275337994;9,582811975463118;36,9579149754326
12:07:55.959;0;Wrist;1;59182;9,71;-3,2599871822260202;-2,7730827223273415;-1,9906857747505111;-2,7730827223273415;-3,2599871822260202;-1,9906857747505111;26,123844111453597;11,20029297769097;39,1857661671804
12:07:55.959;0;Wrist;1;59183;9,71;-5,751933633686331;-1,3709890810495315;-1,9356548223059786;-1,3709890810495315;-5,751933633686331;-1,9356548223059786;24,597918637653738;1,922666096987823;37,537766655476545
12:07:55.959;0;Wrist;1;59184;9,71;-8,814526619769891;0;-4,1572313608203375;-0,026319163317180778;-8,814526619769891;-4,1572313608203375;22,27851191747795;-9,7964415417951;26,429029206213567
12:07:55.979;0;Mov;1;12851;9,8;0;8,966460158085878;-4,013672292245246;8,966460158085878;0,12681051653530992;-4,013672292245246;-83,19345683156834;-382,4274422437208;-68,75820184942168
12:07:55.979;0;Mov;1;12852;9,8;0;7,340653801843318;-3,8497757366405225;7,340653801843318;0,3732535902165288;-3,8497757366405225;-76,50990325632496;-380,84047975096894;-66,13361003448591
12:07:55.979;0;Mov;1;12853;9,8;0;5,422944101535081;-1,0982269222846157;5,422944101535081;0,04306772280776963;-1,0982269222846157;-67,90368358409376;-378,64314706869715;-61,67790765099033
12:07:55.979;0;Mov;1;12854;9,8;-0,6567827625736259;3,453791877117222;0;3,453791877117222;-0,6567827625736259;0,29309976500747703;-60,33509323404645;-379,5587023529771;-61,18961149937437
12:07:55.979;0;Mov;1;12855;9,8;-1,1879513401440474;1,6126469180120242;0;1,6126469180120242;-1,1879513401440474;0,3349711600085452;-54,414502395702996;-381,7560350352489;-62,50190740684225
12:07:55.986;0;Wrist;1;59185;9,61;-11,033710554826502;1,331510408719138;-7,491390919217506;1,331510408719138;-11,033710554826502;-7,491390919217506;22,49214148380993;-18,097476119266336;6,317331461531419
12:07:55.986;0;Wrist;1;59186;9,61;-11,721597758415479;2,591241283150731;-8,797778633991516;2,591241283150731;-11,721597758415479;-8,797778633991516;21,423993652150028;-20,844141972106083;-20,630512405774102
12:07:55.986;0;Wrist;1;59187;9,61;-11,079171689504685;3,5961547631763664;-7,378936410870693;3,5961547631763664;-11,079171689504685;-7,378936410870693;19,714957121494187;-22,8278450880459;-47,8835413678396
12:07:55.987;0;Wrist;1;59188;9,61;-10,74539647358623;4,0543472663045135;-6,5163855784783475;4,0543472663045135;-10,74539647358623;-6,5163855784783475;21,027253028962065;-28,748435926389355;-69,88738670003357
12:07:55.987;0;Wrist;1;59189;9,61;-9,744071779534288;3,734928624835963;-6,205340929898984;3,734928624835963;-9,744071779534288;-6,205340929898984;27,95495468001343;-38,54487746818445;-87,13034455397198
12:07:56.038;0;Mov;1;12856;9,36;-1,7550096848582415;0;0,6460158085879085;0,17466353939367352;-1,7550096848582415;0,6460158085879085;-53,68205816827906;-379,5281838435011;-65,46220282601398
12:07:56.039;0;Mov;1;12857;9,36;-2,8568255123294777;-1,2094851289025543;2,4381115623187966;-1,2094851289025543;-2,8568255123294777;2,4381115623187966;-56,06250190740684;-376,38477736747336;-70,03997924741356
12:07:56.039;0;Mov;1;12858;9,36;-4,224225688192389;-3,1463362529374064;4,1022002891628775;-3,1463362529374064;-4,224225688192389;4,1022002891628775;-58,290353099154636;-375,56077761162146;-76,35731070894498
12:07:56.039;0;Mov;1;12859;9,36;-4,985088847010712;-5,560521542252876;4,069899784844508;-5,560521542252876;-4,985088847010712;4,069899784844508;-62,19672231208228;-374,9504074221015;-85,23819696646015
12:07:56.039;0;Mov;1;12860;9,36;-5,658619953001495;-8,727195043794062;4,407263309884946;-8,727195043794062;-5,658619953001495;4,407263309884946;-73,42753379924925;-367,7175206762902;-94,85152745139928
12:07:56.046;0;Wrist;1;59190;9,84;-6,968596453749199;3,350908021027253;-5,748344370860927;3,350908021027253;-6,968596453749199;-5,748344370860927;28,38221381267739;-40,46754356517228;-96,40797143467513
12:07:56.047;0;Wrist;1;59191;9,84;-6,167058320871608;2,9680838381603443;-5,591625625629444;2,9680838381603443;-6,167058320871608;-5,591625625629444;8,301034577471237;-40,040284432508315;-99,42930387279885
12:07:56.047;0;Wrist;1;59192;9,84;-5,984020699179052;1,9775262173070467;-4,041188066499832;1,9775262173070467;-5,984020699179052;-4,041188066499832;-5,920590838343455;-38,69747001556444;-101,38248847926268
12:07:56.047;0;Wrist;1;59193;9,84;-4,506558618427076;0,537150205427717;-0,9821833299317911;0,537150205427717;-4,506558618427076;-0,9821833299317911;-0,3357036042359691;-45,716727195043795;-104,49537644581439
12:07:56.047;0;Wrist;1;59194;9,84;-3,931125923184912;0;-3,8832729003265483;0,2739585499034852;-3,931125923184912;-3,8832729003265483;8,972441785943175;-62,28827784051027;-99,9481185338908
12:07:56.069;0;Mov;1;12861;9,48;-6,591753898739586;-12,80905808435316;5,406195162053285;-12,80905808435316;-6,591753898739586;5,406195162053285;-86,977752006592;-357,21915341654716;-104,89211706900235
12:07:56.069;0;Mov;1;12862;9,48;-5,7196326525162515;-18,059730445265053;5,8021790215765865;-18,059730445265053;-5,7196326525162515;5,8021790215765865;-104,03759880367443;-345,5610827967162;-116,1839655751213
12:07:56.069;0;Mov;1;12863;9,48;-3,4454176458021792;-24,126298944059574;5,371501815851314;-24,126298944059574;-3,4454176458021792;5,371501815851314;-137,36381115146335;-332,86538285470135;-128,69655446028017
12:07:56.069;0;Mov;1;12864;9,48;0;-29,62461088900418;1,9667592633213293;-29,62461088900418;-0,07536851398224585;1,9667592633213293;-180,6695760979034;-317,5145725882748;-141,239661854915
12:07:56.069;0;Mov;1;12865;9,48;4,724289586321604;-34,79034546952727;-5,538987395855586;-34,79034546952727;4,724289586321604;-5,538987395855586;-212,0731223487045;-286,23310037537766;-149,72380748924223
12:07:56.103;0;Mov;1;12866;9,5;10,739414845728934;-39,201197088534194;-10,696347506637776;-39,201197088534194;10,739414845728934;-10,696347506637776;-212,28675191503646;-236,82363353373822;-138,30988494521927
12:07:56.104;0;Mov;1;12867;9,5;16,32984405041658;-39,201197088534194;-13,694339007232887;-39,201197088534194;16,32984405041658;-13,694339007232887;-175,0236518448439;-176,88528092287973;-102,1759697256386
12:07:56.104;0;Mov;1;12868;9,5;18,084854808191167;-39,201197088534194;-14,692074915311137;-39,201197088534194;18,084854808191167;-14,692074915311137;-119,66307565538499;-122,40974150822474;-45,86931974242378
12:07:56.104;0;Mov;1;12869;9,5;14,859560495315408;-39,201197088534194;-15,967357593005158;-39,201197088534194;14,859560495315408;-15,967357593005158;-67,53746147038179;-75,59434797204504;11,963255714590899
12:07:56.104;0;Mov;1;12870;9,5;8,78102969450972;-39,201197088534194;-21,40106852931303;-39,201197088534194;8,78102969450972;-21,40106852931303;-31,891842402417065;-24,292733542893764;50,11139255958739
12:07:56.109;0;Wrist;1;59195;9,96;-4,84033335749382;0;-9,303824159978026;-0,2548173646027253;-4,84033335749382;-9,303824159978026;2,197332682271798;-70,37568285164953;-95,82811975463119
12:07:56.110;0;Wrist;1;59196;9,96;-3,0267036957914977;-1,9500106814783167;-10,23935094759972;-1,9500106814783167;-3,0267036957914977;-10,23935094759972;-9,399700918607135;-59,08383434553056;-96,13330484939115
12:07:56.110;0;Wrist;1;59197;9,96;3,3999572264015625;-4,419226565599536;-9,15428346354564;-4,419226565599536;3,3999572264015625;-9,15428346354564;-16,602069154942473;-36,31702627643666;-88,38160344248787
12:07:56.110;0;Wrist;1;59198;9,96;8,968852999969481;-7,965135940885647;-10,00965624713889;-7,965135940885647;8,968852999969481;-10,00965624713889;-17,548142948698384;-7,843256935331278;-62,379833368938264
12:07:56.110;0;Wrist;1;59199;9,96;10,952360606707968;-10,507327303384503;-17,85755294961394;-10,507327303384503;10,952360606707968;-17,85755294961394;-2,2583697012237924;25,055696279793693;-24,414807580797753
12:07:56.137;0;Wrist;1;59200;9,95;12,712156094546343;-12,472890980254524;-20,927323984496596;-12,472890980254524;12,712156094546343;-20,927323984496596;27,92443617053743;82,21686452833643;5,188146610919523
12:07:56.137;0;Wrist;1;59201;9,95;12,155864703817866;-11,828071115756707;-19,025166325876643;-11,828071115756707;12,155864703817866;-19,025166325876643;52,613910336619156;150,82247383037813;29,69450972014527
12:07:56.137;0;Wrist;1;59202;9,95;6,4170902699362165;-4,493398941770684;-18,52869121372112;-4,493398941770684;6,4170902699362165;-18,52869121372112;58,01568651387066;209,47904904324471;39,30784020508438
12:07:56.138;0;Wrist;1;59203;9,95;4,437171449171422;6,658748226111637;-12,371203306680501;6,658748226111637;4,437171449171422;-12,371203306680501;72,17627491073335;244,30066835535752;35,035248878444776
12:07:56.138;0;Wrist;1;59204;9,95;-21,42738692892239;1,494210662594989;-39,056440168462174;1,494210662594989;-21,42738692892239;-39,056440168462174;57,222205267494736;392,68166142765585;-38,209173863948486
12:07:56.161;0;Mov;1;12871;9,72;3,707413089007233;-39,201197088534194;-27,270241401409955;-39,201197088534194;3,707413089007233;-27,270241401409955;-14,831995605334635;37,47672963652455;52,64442884609516
12:07:56.161;0;Mov;1;12872;9,72;1,9392438467055269;-39,201197088534194;-26,416064561906797;-39,201197088534194;1,9392438467055269;-26,416064561906797;-13,763847773674733;113,34574419385358;27,61925107577746
12:07:56.161;0;Mov;1;12873;9,72;2,314889980773339;-39,201197088534194;-22,438282036805322;-39,201197088534194;2,314889980773339;-22,438282036805322;-8,514664143803216;201,20853297524948;-4,943998535111545
12:07:56.161;0;Mov;1;12874;9,72;5,449262977996154;-29,265713217566454;-13,6656268120365;-29,265713217566454;5,449262977996154;-13,6656268120365;11,444441053498947;265,96881008331553;-23,13303018280587
12:07:56.161;0;Mov;1;12875;9,72;2,2622517509994813;-15,589319093905454;-7,521299058503983;-15,589319093905454;2,2622517509994813;-7,521299058503983;26,337473677785578;290,62776573992124;-24,65895565660573
12:07:56.196;0;Wrist;1;59205;9,84;-23,32356295968505;12,602093951231423;-39,201197088534194;12,602093951231423;-23,32356295968505;-39,201197088534194;163,21298867763298;858,4856715598011;-305,4902798547319
12:07:56.196;0;Wrist;1;59206;9,84;29,30638866847743;-10,386498802148504;12,817432554094058;-10,386498802148504;29,30638866847743;12,817432554094058;-218,5125278481399;1000;-161,65654469435714
12:07:56.196;0;Wrist;1;59207;9,84;10,14125205999939;-12,917923329874569;5,019782193212683;-12,917923329874569;10,14125205999939;5,019782193212683;-582,2626422925505;818,2012390514848;-298,13531907101657
12:07:56.196;0;Wrist;1;59208;9,84;-34,20175405133213;39,19999923703726;-9,059773361919003;39,19999923703726;-34,20175405133213;-9,059773361919003;-24,56740012817774;-155,15610217596972;-182,31757560960722
12:07:56.196;0;Wrist;1;59209;9,84;1,050373899426252;16,621747871333962;-2,4237557031464583;16,621747871333962;1,050373899426252;-2,4237557031464583;166,99728385265664;221,8390453810236;87,40501113925596
12:07:56.222;0;Mov;1;12876;9,97;10,823157635731071;-19,62332911160619;-27,619569612720113;-19,62332911160619;10,823157635731071;-27,619569612720113;78,73775444807275;557,2069460127567;109,7445600756859
12:07:56.223;0;Mov;1;12877;9,97;8,60516964476455;-39,201197088534194;22,537577822199165;-39,201197088534194;8,60516964476455;22,537577822199165;311,8991668446913;971,5872676778466;214,30097354045228
12:07:56.223;0;Mov;1;12878;9,97;27,173339411603138;-38,23695715201269;25,72698141422773;-38,23695715201269;27,173339411603138;25,72698141422773;690,4812768944365;1000;117,70989104892116
12:07:56.223;0;Mov;1;12879;9,97;-8,326425977355266;-6,5199743644520405;-13,189489425336467;-6,5199743644520405;-8,326425977355266;-13,189489425336467;106,93685720389416;272,92703024384286;89,90752891628773
12:07:56.223;0;Mov;1;12880;9,97;17,200769829401533;29,953600421155432;-9,431831186864834;29,953600421155432;17,200769829401533;-9,431831186864834;0,5798516800439466;40,86428418836024;26,21539963988159
12:07:56.248;0;Mov;1;12881;9,6;-18,7894890438551;-19,759710608233895;-2,4811793782616656;-19,759710608233895;-18,7894890438551;-2,4811793782616656;-6,653035065767388;249,64140751365704;-17,639698477126377
12:07:56.248;0;Mov;1;12882;9,6;3,5949583422345652;-30,24909207434309;1,9918820764793848;-30,24909207434309;3,5949583422345652;1,9918820764793848;33,02102725302896;132,87759025849178;24,78102969450972
12:07:56.248;0;Mov;1;12883;9,6;-2,282589238029115;1,6724631965849788;1,655714614741966;1,6724631965849788;-2,282589238029115;1,655714614741966;15,686513870662557;29,053621021149326;26,85628833887753
12:07:56.248;0;Mov;1;12884;9,6;-0,9606494815668203;4,835548150578326;0,5718436112361522;4,835548150578326;-0,9606494815668203;0,5718436112361522;22,888882106997894;51,1490218817713;50,32502212591937
12:07:56.248;0;Mov;1;12885;9,6;3,3999572264015625;-7,126511619922483;-1,442768615337077;-7,126511619922483;3,3999572264015625;-1,442768615337077;34,7605822931608;61,89153721732231;57,83257545701468
12:07:56.316;0;Wrist;1;59210;10,08;20,259773552659688;-18,828968550675985;-10,033582758568071;-18,828968550675985;20,259773552659688;-10,033582758568071;61,250648518326365;299,69176305429244;38,14813684499649
12:07:56.316;0;Wrist;1;59211;10,08;13,914463293862728;-14,948088015381328;-4,135697691274758;-14,948088015381328;13,914463293862728;-4,135697691274758;-2,044740134891812;88,96145512253182;-33,35673085726493
