Frecuencia (Hz);100
time;timespan;canal;id;sample;gap;accX;accY;accZ;rawAccX;rawAccY;rawAccZ;rawGirX;rawGirY;rawGirZ
11:55:58.548;0;Wrist;1;58550;12,78;0;-1,9751336138492996;0;-1,9751336138492996;-0,4665669728690451;-0,02990813928647725;16,724143192846462;-6,836146122623371;2,3499252296517836
11:55:58.548;0;Wrist;1;58551;12,78;0;-1,9009613568910795;0;-1,9009613568910795;-0,22132023071993165;-0,11365092928861355;19,867549668874172;-6,95822016052736;6,622516556291391
11:55:58.549;0;Wrist;1;58552;12,78;0;-1,9978637043366803;0;-1,9978637043366803;-0,13279214439260537;-0,32420423582605973;20,75258644367809;-10,406811731315043;8,941923276467177
11:55:58.549;0;Wrist;1;58553;12,78;0;-1,822003893017365;0;-1,822003893017365;0,04546037097036462;-0,3421491193979461;20,75258644367809;-14,67940305795465;10,43733024079104
11:55:58.550;0;Wrist;1;58554;12,78;0;-1,7143345915860468;-0,9977355504394665;-1,7143345915860468;0,2799401777607807;-0,9977355504394665;20,599993896298106;-18,616290780358288;10,834070863979003
11:55:58.551;0;Mov;1;12216;12,17;0;-0,5969664840006714;0;-0,5969664840006714;0,28831446868228705;0,04426404688906713;-28,07702871791742;-44,98428296761986;-16,96829126865444
11:55:58.551;0;Mov;1;12217;12,17;0;-0,8697287023720511;0;-0,8697287023720511;0,24165777735602892;-0,003588976900647469;-26,123844111453597;-43,12265388958403;-20,905178991058076
11:55:58.551;0;Mov;1;12218;12,17;0;-0,8637470745147557;-0,515616357062746;-0,8637470745147557;0,3923948053205206;-0,515616357062746;-23,438215277565845;-42,81746879482406;-25,208288827173682
11:55:58.551;0;Mov;1;12219;12,17;0;-0,9343303070734276;0;-0,9343303070734276;0,08852809377813425;-0,32540056735816525;-22,49214148380993;-43,94665364543596;-27,83288064210944
11:55:58.551;0;Mov;1;12220;12,17;0;-0,6065370766510514;0;-0,6065370766510514;-0,3900021422563097;-0,4091433573603015;-19,806512649922176;-45,13687551499985;-29,48088015381329
11:55:58.552;0;Wrist;1;58555;11,25;0;-1,1592395025864437;-0,881691958086642;-1,1592395025864437;0,3624866660340434;-0,881691958086642;19,409772026734213;-23,621326334421827;9,308145390179144
11:55:58.552;0;Wrist;1;58556;11,25;0;-1,4738731755653554;0;-1,4738731755653554;0,43665883358256785;-0,36009400296983246;20,813623462630087;-25,33036286507767;8,117923520615253
11:55:58.552;0;Wrist;1;58557;11,25;0;-1,9715445894497512;0;-1,9715445894497512;0,07776116214484084;-0,25362103307061984;23,926511429181797;-26,581621753593556;8,636738181707205
11:55:58.552;0;Wrist;1;58558;11,25;0;-2,0505021725363934;0;-2,0505021725363934;-0,11365092928861355;-0,16150395214697713;27,31406598101749;-29,23673207800531;10,22370067445906
11:55:58.552;0;Wrist;1;58559;11,25;0;-2,1593676564836572;0;-2,1593676564836572;0,05383465071565905;-0,025122837373181287;30,365916928617207;-31,708731345561084;12,085329752494888
11:55:58.553;0;Mov;1;12221;10,87;-0,5359538440923796;-0,6747276461455123;0;-0,6747276461455123;-0,5359538440923796;-0,2153386028626362;-16,17481002227851;-41,07791375469222;-30,823694570757166
11:55:58.553;0;Mov;1;12222;10,87;-0,6831019370670186;-0,8565691449285867;0;-0,8565691449285867;-0,6831019370670186;-0,14595171673768578;-13,428144169438765;-44,31287575914792;-29,48088015381329
11:55:58.553;0;Mov;1;12223;10,87;-0,940311934930723;-0,9235633530877102;0;-0,9235633530877102;-0,940311934930723;-0,29309976500747703;-10,040589617603077;-46,174504837183754;-27,06991790520951
11:55:58.553;0;Mov;1;12224;10,87;-1,1209571319849239;-1,0324290158543656;0;-1,0324290158543656;-1,1209571319849239;-0,1435590685750908;-7,110812707907346;-47,21213415936766;-26,154362620929593
11:55:58.553;0;Mov;1;12225;10,87;-1,0802820387127292;-1,0360179210409863;0;-1,0360179210409863;-1,0802820387127292;0,17227089123107853;-4,8829615161595505;-48,738059633167516;-24,56740012817774
11:55:58.556;0;Mov;1;12226;9,86;-1,0204657601397749;-1,2393932681890316;0;-1,2393932681890316;-1,0204657601397749;0,0945097216354297;-4,364146855067599;-54,71968749046297;-21,39347514267403
11:55:58.557;0;Mov;1;12227;9,86;-1,095834199613941;-1,5516343377101962;0;-1,5516343377101962;-1,095834199613941;0,3433454509300516;-4,150517288735618;-59,205908383434554;-19,47080904568621
11:55:58.557;0;Mov;1;12228;9,86;-1,1149755041276284;-1,967955565050203;0;-1,967955565050203;-1,1149755041276284;0,42110661307489244;-4,486220892971588;-67,14072084719382;-19,928586687826165
11:55:58.557;0;Mov;1;12229;9,86;-0,7931638419560839;-2,1354411450544757;0;-2,1354411450544757;-0,7931638419560839;0,38760947919209876;-5,3102206488235115;-83,19345683156834;-22,980437635425886
11:55:58.557;0;Mov;1;12230;9,86;-0,7560777730834376;-1,8232001947462386;0;-1,8232001947462386;-0,7560777730834376;-0,0011963255947428648;-7,93481246375927;-106,72322763756218;-27,31406598101749
11:55:58.558;0;Wrist;1;58560;10,13;0;-2,0445205446790977;0;-2,0445205446790977;0,31582994490455335;0,16509293184167761;32,25806451612903;-35,55406353953673;14,191106906338694
11:55:58.558;0;Wrist;1;58561;10,13;0;-1,9918820764793848;0;-1,9918820764793848;0,4761375953226569;0,3146336431756798;36,80532242805261;-38,39228492080447;15,594958342234566
11:55:58.558;0;Wrist;1;58562;10,13;0;-2,623542025894955;0;-2,623542025894955;0,43306986878948334;0,39957273490668965;42,085024567400126;-42,146061586352126;16,418958098086488
11:55:58.558;0;Wrist;1;58563;10,13;0,5550950889996032;-2,5601367229224525;0,5144199957274087;-2,5601367229224525;0,5550950889996032;0,5144199957274087;40,192876979888304;-51,42368846705527;18,25006866664632
11:55:58.558;0;Wrist;1;58564;10,13;0,6508011347163305;-2,166545705282754;0;-2,166545705282754;0,6508011347163305;0,41153599062128055;36,83584093752861;-61,342204046754354;19,5623645741142
11:55:58.588;0;Wrist;1;58565;9,71;0,6173040306367688;-2,686947328867458;0;-2,686947328867458;0,6173040306367688;0,09092074194072924;38,54487746818445;-65,49272133548997;20,081179235206154
11:55:58.588;0;Wrist;1;58566;9,71;-1,381756035035249;-1,1101901779992065;-1,137705594615009;-1,1101901779992065;-1,381756035035249;-1,137705594615009;33,99761955626087;-72,96975615710929;19,837031159398176
11:55:58.588;0;Wrist;1;58567;9,71;-2,0373424958800013;-1,3362957348475601;0;-1,3362957348475601;-2,0373424958800013;0,19380473959604938;13,397625659962767;-63,26487014374218;18,89095736564226
11:55:58.588;0;Wrist;1;58568;9,71;0,8613544114505448;-2,0947661709952086;0;-2,0947661709952086;0,8613544114505448;-0,358897671437727;-5,645924253059481;-59,602649006622514;20,87466048158208
11:55:58.588;0;Wrist;1;58569;9,71;0;0;0;0,12681051653530992;0,32779320061914424;-0,28113650929288614;-6,164738914151433;-67,78160954618977;21,485030671102024
11:55:58.604;0;Mov;1;12231;9,83;0;-1,9224952648625142;0;-1,9224952648625142;-0,27276224817461164;-0,20696432684274574;-11,719107638782923;-122,34870448927275;-31,434064760277106
11:55:58.605;0;Mov;1;12232;9,83;0;1,2549455483031708;-4,28045318079165;1,2549455483031708;0,08972441785943175;-4,28045318079165;-0,793481246375927;-89,35819574571978;-35,73717459639271
11:55:58.605;0;Mov;1;12233;9,83;-1,9524034041489913;1,3398846400341808;5,024567400128178;1,3398846400341808;-1,9524034041489913;5,024567400128178;14,404736472670674;29,419843134861292;-28,199102755821407
11:55:58.605;0;Mov;1;12234;9,83;-2,567314771721549;1,9643666598635823;-2,10194398136845;1,9643666598635823;-2,567314771721549;-2,10194398136845;9,399700918607135;-74,25153355510118;-11,352885525070956
11:55:58.605;0;Mov;1;12235;9,83;0;0;1,6078615918836023;-0,3313821952154607;-0,23806879766132846;1,6078615918836023;0,4882961516159551;-16,479995117038484;0,6714072084719382
11:55:58.614;0;Wrist;1;58570;9,3;0;0;0;-0,3947874385814997;-0,1292031646979049;0,0346934430624752;2,288888210699789;-56,550798059022796;15,808587908566546
11:55:58.614;0;Wrist;1;58571;9,3;0;0;0;-0,42828457246429336;-0,3935911070493942;-0,12681051653530992;6,073183385723441;-53,31583605456709;10,895107882930997
11:55:58.614;0;Wrist;1;58572;9,3;0;-1,2980132450331126;0;-1,2980132450331126;-0,20816065837485123;0,34573808419103064;3,7537766655476545;-51,484725486007264;6,103701895199438
11:55:58.614;0;Wrist;1;58573;9,3;0;-2,7276223029267253;0;-2,7276223029267253;0,16987822816686757;0,47135229899746695;-3,4180730613116856;-59,69420453505051;3,5706656086916717
11:55:58.614;0;Wrist;1;58574;9,3;0;-2,527835980178228;0;-2,527835980178228;0,1064729773500206;0,412732322153386;-10,925626392406995;-80,84353160191657;4,638813440351573
11:55:58.663;0;Mov;1;12236;9,98;0;-0,9654347480887784;0;-0,9654347480887784;0,30745568378627885;0,44862208929715874;-8,423108615375225;-23,102511673329875;5,066072573015534
11:55:58.663;0;Mov;1;12237;9,98;0,7261696337969603;0;0;-0,26558428878521073;0,7261696337969603;-0,1507370279644917;-11,963255714590899;-28,962065492721337;1,8616290780358287
11:55:58.663;0;Mov;1;12238;9,98;1,2836573858607745;-0,5263832514419996;-0,5060457048059023;-0,5263832514419996;1,2836573858607745;-0,5060457048059023;-13,885921811578722;-27,61925107577746;-1,1597033600878932
11:55:58.663;0;Mov;1;12239;9,98;0,7524888082903531;-1,9117283108767968;0;-1,9117283108767968;0,7524888082903531;0,4845118564409314;-18,005920590838343;-22,309030426953946;-3,662221137119663
11:55:58.663;0;Mov;1;12240;9,98;0,5168126587916196;-1,5121555461668752;0;-1,5121555461668752;0,5168126587916196;0,25720999786370435;-22,73628955961791;-37,47672963652455;-6,561479537339396
11:55:58.670;0;Wrist;1;58575;9,48;0;-2,2120061246833704;0;-2,2120061246833704;-0,15552232428968168;-0,014355907602589877;-7,5685903500473035;-89,29715872676779;5,951109347819452
11:55:58.670;0;Wrist;1;58576;9,48;0;-1,8351634504608294;0;-1,8351634504608294;0,2512283700064089;-0,48211922317995237;-0,7019257179479355;-86,70308542130802;5,798516800439467
11:55:58.670;0;Wrist;1;58577;9,48;0;-1,331510408719138;0;-1,331510408719138;0,21653493439474167;-0,20935697500534073;6,927701651051363;-78,85982848597675;4,425183874019593
11:55:58.670;0;Wrist;1;58578;9,48;0;-1,3997009186071352;0;-1,3997009186071352;-0,06220893046095347;-0,14595171673768578;8,301034577471237;-71,74901577806939;2,6551103244117558
11:55:58.671;0;Wrist;1;58579;9,48;0;-1,1819697122867519;-0,651997436445204;-1,1819697122867519;-0,16270028367908262;-0,651997436445204;4,119998779259621;-65,73686941129795;1,4343699453718681
11:55:58.692;0;Mov;1;12241;9,66;0;-0,5754326356357006;0;-0,5754326356357006;-0,038282419031771674;0,015552232615238368;-24,23169652394177;-44,282357249671925;-6,225775933103427
11:55:58.692;0;Mov;1;12242;9,66;-0,8709250041009247;0;0;-0,30027772439687794;-0,8709250041009247;-0,3098483170472579;-22,888882106997894;-44,740134891811884;-2,563554795983764
11:55:58.692;0;Mov;1;12243;9,66;-1,2645162005600146;-0,5682546464430677;0;-0,5682546464430677;-1,2645162005600146;-0,18543046357615894;-21,30191961424604;-38,0260628070925;0,45777764213995786
11:55:58.692;0;Mov;1;12244;9,66;-0,7847896106410412;-0,7393291912404248;0;-0,7393291912404248;-0,7847896106410412;0,0466566987770661;-17,853328043458358;-33,35673085726493;2,71614734336375
11:55:58.692;0;Mov;1;12245;9,66;0;0;0;-0,42828457246429336;-0,37923521807382427;-0,07536851398224585;-14,34369945371868;-34,058656575212865;4,913480025635548
11:55:58.729;0;Wrist;1;58580;9,64;0;-0,7608630992118595;-1,3494552922910246;-0,7608630992118595;0,007177953801294938;-1,3494552922910246;0,4882961516159551;-59,08383434553056;0,4272591326639607
11:55:58.729;0;Wrist;1;58581;9,64;0;0;-1,8507157305749686;-0,12322153684060945;-0,28113650929288614;-1,8507157305749686;-0,7324442274239327;-47,547837763603624;1,8005920590838342
11:55:58.729;0;Wrist;1;58582;9,64;0;0;-1,8255927982039857;-0,3780388865417188;-0,05383465071565905;-1,8255927982039857;1,4343699453718681;-28,015991698965422;2,7771843623157446
11:55:58.729;0;Wrist;1;58583;9,64;0;-0,9534714923741875;-1,5791497543259987;-0,9534714923741875;0,27635121296769616;-1,5791497543259987;2,2278511917477952;-11,139255958738975;4,364146855067599
11:55:58.729;0;Wrist;1;58584;9,64;-0,5718436112361522;-0,5467207980780968;-1,9847041468932158;-0,5467207980780968;-0,5718436112361522;-1,9847041468932158;0,5188146610919523;0,5188146610919523;7,141331217383343
11:55:58.752;0;Mov;1;12246;9,83;-0,5036531013481551;0;-0,9486862258522294;0,004785302378971459;-0,5036531013481551;-0,9486862258522294;-14,282662434766687;-36,04235969115268;4,577776421399578
11:55:58.752;0;Mov;1;12247;9,83;0;0;-1,2058962237159336;-0,1890194432708594;-0,2715659166425062;-1,2058962237159336;-14,435254982146672;-28,38221381267739;2,075258644367809
11:55:58.752;0;Mov;1;12248;9,83;0;0;-1,2058962237159336;-0,003588976900647469;0,2548173646027253;-1,2058962237159336;-11,20029297769097;-25,849177526169623;0,640888698995941
11:55:58.752;0;Mov;1;12249;9,83;0;0;-1,2884427119891964;0,1543260076591922;0,009570604757942918;-1,2884427119891964;-9,979552598651082;-21,362956633198035;0,061037018951994385
11:55:58.752;0;Mov;1;12250;9,83;0;0;-1,116171805856502;-0,24285409398651844;-0,45938904328287605;-1,116171805856502;-11,291848506118962;-15,381328775902585;-0,3967406231879635
11:55:58.792;0;Wrist;1;58585;9,85;0;0;-2,10194398136845;-0,1435590685750908;-0,2679769220461898;-2,10194398136845;-1,3733329264198737;16,602069154942473;8,270516067995239
11:55:58.792;0;Wrist;1;58586;9,85;0;0;-1,7550096848582415;-0,22012391408944212;0,19500107112815485;-1,7550096848582415;-6,74459059419538;36,59169286172063;9,155552842799157
11:55:58.792;0;Wrist;1;58587;9,85;0;0;-1,0790857369838558;0,28352917235709707;-0,21055330653744622;-1,0790857369838558;-12,085329752494888;57,161168248542744;9,094515823847164
11:55:58.792;0;Wrist;1;58588;9,85;-1,1879513401440474;0;0,5694510077784051;-0,08613544561553926;-1,1879513401440474;0,5694510077784051;-7,080294198431349;76,23523667104098;4,699850459303567
11:55:58.792;0;Wrist;1;58589;9,85;-0,8697287023720511;-0,5359538440923796;0;-0,5359538440923796;-0,8697287023720511;0,35650503817674795;8,972441785943175;89,2666402172918;-2,2278511917477952
11:55:58.812;0;Mov;1;12251;9,98;0;-0,8170903533852657;0;-0,8170903533852657;-0,00837427881394343;-0,40316172950300605;-13,031403546250802;-10,711996826075014;-1,5259254737998595
11:55:58.812;0;Mov;1;12252;9,98;0,8481948540070803;-0,6747276461455123;0;-0,6747276461455123;0,8481948540070803;-0,0957060457167272;-16,541032135990477;-10,376293221839045;-3,1128879665517135
11:55:58.813;0;Mov;1;12253;9,98;1,006109781754509;0;0;-0,236872466129223;1,006109781754509;-0,3888058107242042;-22,095400860621968;-9,643848994415112;-3,9979247413556322
11:55:58.813;0;Mov;1;12254;9,98;0;0;0;-0,4019653979709006;0,3517197120483261;-0,2009826989854503;-26,306955168309578;-6,591998046815394;-3,7842951750236518
11:55:58.813;0;Mov;1;12255;9,98;0;-0,8362315982924894;0;-0,8362315982924894;0;0,1339884610230949;-28,13806573686941;-5,4322946867275;-3,5401470992156745
11:55:58.820;0;Wrist;1;58590;9,57;0;-1,6054689884258553;0,7632557026696066;-1,6054689884258553;0,410339688892407;0,7632557026696066;17,761772515030366;102,57271034882656;-7,17184972685934
11:55:58.820;0;Wrist;1;58591;9,57;0,7118137150181585;-2,807776068529313;0;-2,807776068529313;0,7118137150181585;0,40316172950300605;16,144291512802514;96,22486037781914;-9,704886013367107
11:55:58.820;0;Wrist;1;58592;9,57;0,8003418311487167;-2,696517981124302;0;-2,696517981124302;0,8003418311487167;0,1890194432708594;4,4557023834955904;78,85982848597675;-9,735404522843105
11:55:58.820;0;Wrist;1;58593;9,57;0;-1,1640248287148656;-0,6041444135868405;-1,1640248287148656;-0,13757744071779535;-0,6041444135868405;-7,72118289742729;61,43375957518235;-11,291848506118962
11:55:58.820;0;Wrist;1;58594;9,57;0;-1,914120914334544;0;-1,914120914334544;0,3098483170472579;0,21773125102523117;-8,57570116275521;65,49272133548997;-14,191106906338694
11:55:58.842;0;Mov;1;12256;9,73;0;0;-1,4367869874797814;-0,038282419031771674;0,32420423582605973;-1,4367869874797814;-29,175695059053314;-7,9958494827112645;-4,303109836115604
11:55:58.842;0;Mov;1;12257;9,73;-0,8637470745147557;0,8828882598155157;-1,8543046357615893;0,8828882598155157;-0,8637470745147557;-1,8543046357615893;-26,795251319925534;-4,303109836115604;-3,6011841181676685
11:55:58.842;0;Mov;1;12258;9,73;-1,7813287997451706;1,1365092928861353;-2,3842769116031373;1,1365092928861353;-1,7813287997451706;-2,3842769116031373;-16,449476607562488;3,936887722403638;-2,533036286507767
11:55:58.842;0;Mov;1;12259;9,73;-1,6999786132007813;1,3685964775917845;-3,404742671742912;1,3685964775917845;-1,6999786132007813;-3,404742671742912;0,7019257179479355;11,963255714590899;-2,6245918149357585
11:55:58.842;0;Mov;1;12260;9,73;-2,4704123050630207;0,537150205427717;-1,6521255903424177;0,537150205427717;-2,4704123050630207;-1,6521255903424177;28,839991454817348;23,163548692281868;-3,5401470992156745
11:55:58.879;0;Wrist;1;58595;9,71;0;-3,3891903916287727;0,874514028500473;-3,3891903916287727;0,3553087066446425;0,874514028500473;-5,7374797814874725;60,67079683828242;-14,03851435895871
11:55:58.879;0;Wrist;1;58596;9,71;0;-1,9512071024201179;0;-1,9512071024201179;0,0933133975541322;-0,02273018548518231;-10,498367259743034;38,69747001556444;-11,291848506118962
11:55:58.879;0;Wrist;1;58597;9,71;0;-1,4523392675939206;0;-1,4523392675939206;0,01794488357188635;-0,07895748622613834;-10,834070863979003;35,798211615344705;-10,956144901882992
11:55:58.879;0;Wrist;1;58598;9,71;0;-1,690408080156865;0;-1,690408080156865;0,01794488357188635;0,08493911408343378;-10,43733024079104;36,19495223853267;-11,810663167210913
11:55:58.879;0;Wrist;1;58599;9,71;0;-1,8160222651600695;0;-1,8160222651600695;-0,1914120914334544;0,10049134949272515;-9,12503433332316;33,6924344615009;-11,749626148258919
11:55:58.902;0;Mov;1;12261;9,86;-2,2299510082552567;0;-1,4451613380077517;0,234479817966628;-2,2299510082552567;-1,4451613380077517;63,99731437116611;23,651844843897823;-5,493331705679495
11:55:58.902;0;Mov;1;12262;9,86;0;-0,5909848561433759;0,5431318332850124;-0,5909848561433759;0,16509293184167761;0,5431318332850124;83,13241981261635;34,211249122592854;-5,279702139347514
11:55:58.902;0;Mov;1;12263;9,86;2,2742150067140723;-1,9117283108767968;3,2384532742545855;-1,9117283108767968;2,2742150067140723;3,2384532742545855;64,36353648487808;55,33005767998291;-0,793481246375927
11:55:58.902;0;Mov;1;12264;9,86;0;-1,475069477294229;0,8996368416585284;-1,475069477294229;-0,37205725868442335;0,8996368416585284;38,11761833552049;37,20206305124058;5,1576281014435255
11:55:58.902;0;Mov;1;12265;9,86;-0,8505875170712912;-1,1819697122867519;0;-1,1819697122867519;-0,8505875170712912;-0,21892758255733666;28,2601397747734;41,04739524521622;6,927701651051363
11:55:58.909;0;Wrist;1;58600;9,5;0;-1,2238411072878201;0;-1,2238411072878201;-0,28352917235709707;-0,17585985602416304;-7,5685903500473035;30,091250343333233;-11,20029297769097
11:55:58.910;0;Wrist;1;58601;9,5;0;-1,118564409314249;0;-1,118564409314249;-0,12800683316579944;-0,11245460520731605;-5,005035554063539;33,7229529709769;-11,871700186162908
11:55:58.910;0;Wrist;1;58602;9,5;0;-1,648536685155797;0;-1,648536685155797;0,05024567474636257;-0,01674855762788686;-1,6174810022278512;38,54487746818445;-13,092440565202795
11:55:58.910;0;Wrist;1;58603;9,5;0;-2,0038453321939755;0;-2,0038453321939755;0,03349711525577372;0,07656483806354335;1,3428144169438765;37,93450727866451;-13,031403546250802
11:55:58.910;0;Wrist;1;58604;9,5;0;-2,153386028626362;0;-2,153386028626362;-0,03708609495047418;0,39119847378841516;4,150517288735618;36,866359447004605;-11,719107638782923
11:55:58.962;0;Mov;1;12266;9,98;0,5000640769486069;-0,5706473095072787;0,830249970435194;-0,5706473095072787;0,5000640769486069;0,830249970435194;20,44740134891812;50,66072573015534;8,14844203009125
11:55:58.962;0;Mov;1;12267;9,98;-0,7500961452261422;-0,7381328895115512;0;-0,7381328895115512;-0,7500961452261422;0,15911130398438214;15,167699209570605;48,066652424695576;10,284737693411055
11:55:58.962;0;Mov;1;12268;9,98;-0,6878872035889767;-2,712070022812586;1,2537492465742972;-2,712070022812586;-0,6878872035889767;1,2537492465742972;15,2287362285226;50,44709616382336;12,237922299874874
11:55:58.962;0;Mov;1;12269;9,98;0;-2,474001329462569;0,6567827625736259;-2,474001329462569;0,058619954491657;0,6567827625736259;8,178960539567248;28,565324869533374;13,672292245246743
11:55:58.962;0;Mov;1;12270;9,98;0;-1,655714614741966;0,5479170998069705;-1,655714614741966;0,2715659166425062;0,5479170998069705;-0,45777764213995786;18,005920590838343;10,52888576921903
11:55:58.970;0;Wrist;1;58605;9,64;0;-2,100747798852504;0;-2,100747798852504;0,031104465230476736;0,12322153684060945;5,005035554063539;33,11258278145695;-10,284737693411055
11:55:58.970;0;Wrist;1;58606;9,64;0;-4,206280804620502;-0,527579612777337;-4,206280804620502;-0,06101260637965598;-0,527579612777337;13,550218207342754;37,96502578814051;-15,747550889614551
11:55:58.970;0;Wrist;1;58607;9,64;0;-1,348258990562151;1,4989959887234108;-1,348258990562151;0,2440504255186239;1,4989959887234108;30,64058351390118;33,78398998992889;-26,001770073549608
11:55:58.970;0;Wrist;1;58608;9,64;0;-2,6486649582659383;0,5550950889996032;-2,6486649582659383;-0,2584063293958098;0,5550950889996032;2,1362956633198036;-5,371257667775506;4,8829615161595505
11:55:58.970;0;Wrist;1;58609;9,64;0;-3,0901089987640002;1,0910489926984466;-3,0901089987640002;0;1,0910489926984466;2,5025177770317697;-8,392590105899227;5,493331705679495
11:55:58.992;0;Mov;1;12271;9,78;0;-1,7873104276024658;0;-1,7873104276024658;0,2009826989854503;0,4976714436876278;-5,523850215155492;10,65095980712302;5,493331705679495
11:55:58.992;0;Mov;1;12272;9,78;0;-1,4415723136082035;0;-1,4415723136082035;-0,33018586368335523;0,3026703874610889;-9,67436750389111;1,9837031159398175;2,0142216254158147
11:55:58.993;0;Mov;1;12273;9,78;0;-1,777739775345622;0,7512924469550157;-1,777739775345622;-0,3935911070493942;0,7512924469550157;-13,672292245246743;-1,098666341135899;0,3357036042359691
11:55:58.993;0;Mov;1;12274;9,78;0;-2,3184790051728874;0,9283486792161321;-2,3184790051728874;-0,1914120914334544;0,9283486792161321;-21,149327066866054;-7,38547929319132;-0,5798516800439466
11:55:58.993;0;Mov;1;12275;9,78;0;-1,4487502431943724;0;-1,4487502431943724;-0,22251656225203711;0,05024567474636257;-26,245918149357585;-22,705771050141912;-1,3733329264198737
11:55:59.029;0;Wrist;1;58610;9,75;0;-2,6283272328104497;0,7859859123699149;-2,6283272328104497;0,29309976500747703;0,7859859123699149;8,117923520615253;-15,717032380138553;5,706961272011475
11:55:59.029;0;Wrist;1;58611;9,75;0;-1,9320657979064302;0;-1,9320657979064302;0,056227302603658026;-0,01674855762788686;9,949034089175084;-27,49717703787347;8,209479049043244
11:55:59.029;0;Wrist;1;58612;9,75;0;-1,7262978473006378;0;-1,7262978473006378;-0,11365092928861355;-0,19380473959604938;8,301034577471237;-35,76769310586871;9,186071352275155
11:55:59.029;0;Wrist;1;58613;9,75;0;-1,577953452597125;0;-1,577953452597125;0,021533861403884816;-0,08852809377813425;9,369182409131138;-42,756431775872066;10,681478316599017
11:55:59.029;0;Wrist;1;58614;9,75;0;-1,3781671298486282;0;-1,3781671298486282;0,21773125102523117;0,14954069643238624;15,44236579485458;-46,7543565172277;11,993774224066897
11:55:59.052;0;Mov;1;12276;9,88;-0,7393291912404248;-0,9498825275811029;0;-0,9498825275811029;-0,7393291912404248;0;-22,61421552171392;-31,464583269753106;-2,4719992675557725
11:55:59.052;0;Mov;1;12277;9,88;0;-0,6711386813524277;0;-0,6711386813524277;0,00837427881394343;0,4510147523613697;-22,73628955961791;-31,61717581713309;-2,197332682271798
11:55:59.052;0;Mov;1;12278;9,88;0;0;0;-0,3014740559289834;0,0945097216354297;-0,08015381775824382;-27,100436414685507;-30,549027985473188;0,18311105685598317
11:55:59.052;0;Mov;1;12279;9,88;-0,7189917042107914;0;-0,7225806690038759;-0,2524247015385144;-0,7189917042107914;-0,7225806690038759;-25,055696279793693;-29,66399121066927;0,9765923032319102
11:55:59.052;0;Mov;1;12280;9,88;-0,8075197607348857;0;0;-0,35770133990562153;-0,8075197607348857;-0,23806879766132846;-21,454512161626027;-21,149327066866054;1,281777397991882
11:55:59.059;0;Wrist;1;58615;9,57;0;-1,5851313821832942;0;-1,5851313821832942;-0,11484726082071901;0,25003203847430344;22,522659993285927;-51,63731803338725;12,93984801782281
11:55:59.059;0;Wrist;1;58616;9,57;0;-1,7322794751579333;0;-1,7322794751579333;-0,2859218056180761;-0,21653493439474167;26,97836237678152;-58,04620502334666;14,099551377910704
11:55:59.060;0;Wrist;1;58617;9,57;0;-1,4678915477080599;0;-1,4678915477080599;-0,2787438760319071;-0,0933133975541322;25,482955412457656;-60,8539078951384;13,183996093630787
11:55:59.060;0;Wrist;1;58618;9,57;0;-1,4260201527069918;0;-1,4260201527069918;0,11006195704472106;-0,03230079117447623;24,201178014465775;-60,8539078951384;11,017181920834986
11:55:59.060;0;Wrist;1;58619;9,57;0,9343303070734276;-2,0158085879085665;0;-2,0158085879085665;0,9343303070734276;0,3265968988902707;21,485030671102024;-60,15198217719047;7,904293954283273
11:55:59.112;0;Mov;1;12281;9,99;-0,9092074343089084;-0,5407391702208014;0;-0,5407391702208014;-0,9092074343089084;-0,20457167868015075;-20,53895687734611;-17,94488357188635;0,8850367748039186
11:55:59.112;0;Mov;1;12282;9,99;-0,9199743882946257;0;-0,5838068669507431;-0,23208716980403302;-0,9199743882946257;-0,5838068669507431;-19,257179479354228;-19,928586687826165;0,18311105685598317
11:55:59.112;0;Mov;1;12283;9,99;-0,7285622968611714;-0,5072420661412397;0;-0,5072420661412397;-0,7285622968611714;-0,41153599062128055;-18,463698232978302;-16,022217474898525;-0,6714072084719382
11:55:59.112;0;Mov;1;12284;9,99;-0,8087161220702231;-0,5120273326631978;-0,8123050868633076;-0,5120273326631978;-0,8087161220702231;-0,8123050868633076;-16,63258766441847;-19,379253517258217;-0,24414807580797754
11:55:59.113;0;Mov;1;12285;9,99;-1,162828526985992;0;-1,170006456572161;-0,1543260076591922;-1,162828526985992;-1,170006456572161;-11,047700430310984;-20,477919858394117;0,030518509475997192
11:55:59.120;0;Wrist;1;58620;9,69;0,7752189583841975;-1,1723990600299081;-0,5060457048059023;-1,1723990600299081;0,7752189583841975;-0,5060457048059023;18,03643910031434;-56,88650166325877;8,758812219611194
11:55:59.120;0;Wrist;1;58621;9,69;0;0;-1,2023071993163854;-0,4007690664387951;0,06460158234895245;-1,2023071993163854;15,930661946470535;-46,29657887508774;9,094515823847164
11:55:59.120;0;Wrist;1;58622;9,69;0;-0,5826105652218696;-1,2046999219870602;-0,5826105652218696;0,4761375953226569;-1,2046999219870602;11,383404034546952;-33,7229529709769;7,202368236335337
11:55:59.120;0;Wrist;1;58623;9,69;0;0;-1,3961120134205145;-0,3337748284764397;0,24285409398651844;-1,3961120134205145;4,547257911923582;-25,11673329874569;5,615405743583484
11:55:59.120;0;Wrist;1;58624;9,69;0;0;-1,8961760307626576;-0,2548173646027253;0,17346720786156805;-1,8961760307626576;-1,3733329264198737;-15,44236579485458;3,051850947599719
11:55:59.173;0;Mov;1;12286;10,09;-1,0563555272835474;0;-0,7776116214484085;-0,31224098011146884;-1,0563555272835474;-0,7776116214484085;-5,706961272011475;-14,831995605334635;0,21362956633198035
11:55:59.173;0;Mov;1;12287;10,09;-0,5120273326631978;0;0;-0,43665883358256785;-0,5120273326631978;-0,48331555471205784;-2,533036286507767;-11,871700186162908;1,7700735496078372
11:55:59.174;0;Mov;1;12288;10,09;0;0;-1,1137790831858272;0,14595171673768578;-0,39957273490668965;-1,1137790831858272;1,8311105685598315;-13,763847773674733;3,448591570787683
11:55:59.174;0;Mov;1;12289;10,09;-0,6364452159375286;0;-0,7752189583841975;-0,3505234103194525;-0,6364452159375286;-0,7752189583841975;8,850367748039186;-9,277626880703146;5,3102206488235115
11:55:59.174;0;Mov;1;12290;10,09;0;-0,6256782619518113;0;-0,6256782619518113;-0,06340525826765496;-0,3014740559289834;13,153477584154789;-7,110812707907346;7,202368236335337
11:55:59.180;0;Wrist;1;58625;9,8;0;-0,9690237128818628;-1,0886562700277718;-0,9690237128818628;0,0239265114291818;-1,0886562700277718;-4,974517044587542;-5,981627857295449;0,7019257179479355
11:55:59.180;0;Wrist;1;58626;9,8;-1,0419995488982818;-1,0419995488982818;-0,8314462721640675;-1,0419995488982818;-1,0419995488982818;-0,8314462721640675;-6,347849971007416;-2,3194067201757864;-0,24414807580797754
11:55:59.180;0;Wrist;1;58627;9,8;0;-1,3937192907498397;0;-1,3937192907498397;-0,27635121296769616;-0,2009826989854503;-6,653035065767388;0,4272591326639607;-2,5940733054597613
11:55:59.180;0;Wrist;1;58628;9,8;0;-1,7394574047441023;0,5084383678701132;-1,7394574047441023;-0,1292031646979049;0,5084383678701132;-3,4180730613116856;-0,061037018951994385;-3,7537766655476545
11:55:59.180;0;Wrist;1;58629;9,8;-0,9462935627880185;-1,3961120134205145;0;-1,3961120134205145;-0,9462935627880185;-0,239265114291818;1,4343699453718681;-3,9979247413556322;-3,936887722403638
11:55:59.202;0;Mov;1;12291;9,9;0;-0,5538987276642658;0;-0,5538987276642658;0,013159581658590389;-0,15791497245227668;15,900143436994536;-8,392590105899227;8,270516067995239
11:55:59.202;0;Mov;1;12292;9,9;0;0;-0,5084383678701132;-0,4199102815427869;-0,0478530228583636;-0,5084383678701132;17,822809533982362;-9,67436750389111;8,636738181707205
11:55:59.202;0;Mov;1;12293;9,9;0;0;-0,7812005862414929;-0,003588976900647469;-0,05742363041035951;-0,7812005862414929;21,17984557634205;-10,956144901882992;7,9958494827112645
11:55:59.202;0;Mov;1;12294;9,9;0;-0,6986541575746941;0;-0,6986541575746941;-0,3026703874610889;-0,2823328408249916;24,201178014465775;-6,836146122623371;7,17184972685934
11:55:59.202;0;Mov;1;12295;9,9;0;-1,1281350615710928;0;-1,1281350615710928;-0,2512283700064089;0,16150395214697713;25,391399884029664;-3,814813684499649;6,622516556291391
11:55:59.210;0;Wrist;1;58630;9,63;0;-1,5683828003402813;0;-1,5683828003402813;0,08015381775824382;-0,39837643317781607;2,5025177770317697;-5,3102206488235115;-4,333628345591602
11:55:59.210;0;Wrist;1;58631;9,63;0;-1,6724631965849788;0;-1,6724631965849788;-0,0478530228583636;-0,007177953801294938;1,73955504013184;-8,178960539567248;-3,3875545518356884
11:55:59.210;0;Wrist;1;58632;9,63;0;-1,5312967314676351;0;-1,5312967314676351;-0,11604358490201651;0,15791497245227668;2,9297769096957307;-12,573625904110843;-3,0823694570757163
11:55:59.210;0;Wrist;1;58633;9,63;0;-1,667677870456557;0;-1,667677870456557;-0,003588976900647469;-0,234479817966628;4,4557023834955904;-17,365031891842403;-2,7771843623157446
11:55:59.210;0;Wrist;1;58634;9,63;0;-1,2800683614612263;-0,8410168648144475;-1,2800683614612263;0,2512283700064089;-0,8410168648144475;3,6317026276436657;-22,858363597521898;-0,9765923032319102
11:55:59.261;0;Mov;1;12296;9,99;0;0;0;-0,415124985217597;0,2859218056180761;-0,46417433960806603;24,750511185033723;-5,645924253059481;5,4322946867275
11:55:59.262;0;Mov;1;12297;9,99;0;0;0;-0,35770133990562153;0,3098483170472579;-0,43306986878948334;24,35377056184576;-3,326517532883694;4,1810357982116155
11:55:59.263;0;Mov;1;12298;9,99;0;0;0;-0,2859218056180761;0,31224098011146884;-0,3062593522541734;23,316141239661857;-0,7324442274239327;2,7771843623157446
11:55:59.263;0;Mov;1;12299;9,99;0;0;0;-0,025122837373181287;0,35650503817674795;-0,4474257577650533;21,21036408581805;3,0823694570757163;1,1597033600878932
11:55:59.263;0;Mov;1;12300;9,99;0;-0,783593249305704;0;-0,783593249305704;-0,021533861403884816;-0,040675070919770656;19,867549668874172;9,094515823847164;0,3967406231879635
11:55:59.270;0;Wrist;1;58635;9,73;0;-1,7550096848582415;0;-1,7550096848582415;0,49408247889454326;-0,0693868861249504;-0,8545182653279214;-26,917325357829522;-1,1291848506118962
11:55:59.270;0;Wrist;1;58636;9,73;0;-1,8423413800469985;0;-1,8423413800469985;-0,2596026609279153;-0,13997008888039034;-1,4954069643238623;-32,16650898770104;0,9155552842799157
11:55:59.270;0;Wrist;1;58637;9,73;0;-1,6724631965849788;0;-1,6724631965849788;0,2667806203173162;-0,3098483170472579;4,364146855067599;-20,477919858394117;6,74459059419538
11:55:59.270;0;Wrist;1;58638;9,73;0;-0,6101260414441358;-1,4906216381954405;-0,6101260414441358;0,3971801016457106;-1,4906216381954405;-0,6103701895199438;-21,149327066866054;5,371257667775506
11:55:59.270;0;Wrist;1;58639;9,73;0;-0,9415082366595966;-1,7011750341425824;-0,9415082366595966;0,43187353725737787;-1,7011750341425824;-12,756736960966826;-20,081179235206154;2,533036286507767
11:55:59.292;0;Mov;1;12301;9,83;0;-0,6053407749221777;0;-0,6053407749221777;-0,08852809377813425;-0,20337534714804528;19,501327555162206;8,423108615375225;0,030518509475997192
11:55:59.292;0;Mov;1;12302;9,83;0;0;-0,5383465071565905;-0,003588976900647469;0,236872466129223;-0,5383465071565905;21,790215765861994;6,347849971007416;-0,15259254737998595
11:55:59.292;0;Mov;1;12303;9,83;0;-0,6304635880802332;0;-0,6304635880802332;0,22969452164143803;0,10049134949272515;23,987548448133793;10,254219183935056;0,3051850947599719
11:55:59.292;0;Mov;1;12304;9,83;0;-0,7453108190977202;0;-0,7453108190977202;-0,09809870133013016;-0,18303781541356395;25,055696279793693;7,9958494827112645;-0,09155552842799158
11:55:59.293;0;Mov;1;12305;9,83;0;0;-0,710617413289285;0,21773125102523117;-0,026319163317180778;-0,710617413289285;27,008880886257515;5,584887234107486;-0,9460737937559129
11:55:59.329;0;Wrist;1;58640;9,82;0;-0,8015381328775902;-0,7764153197195349;-0,8015381328775902;0,019141209515885837;-0,7764153197195349;-20,44740134891812;-11,108737449262978;3,69273964659566
11:55:59.329;0;Wrist;1;58641;9,82;-0,6089297397152623;-0,8039307959418012;-0,9295449809450056;-0,8039307959418012;-0,6089297397152623;-0,9295449809450056;-24,56740012817774;-8,636738181707205;2,4414807580797753
11:55:59.329;0;Wrist;1;58642;9,82;0;0;-1,0790857369838558;-0,2153386028626362;-0,26199529418889433;-1,0790857369838558;-27,985473189489426;-0,9765923032319102;1,2207403790398876
11:55:59.329;0;Wrist;1;58643;9,82;-0,515616357062746;0;0;-0,29190343347537157;-0,515616357062746;-0,20217903051755579;-28,870509964293344;11,932737205114902;-1,8005920590838342
11:55:59.329;0;Wrist;1;58644;9,82;0;-0,7883785754341258;0;-0,7883785754341258;-0,46058534501174964;0,020337535459885328;-28,290658284249396;24,079103976561786;-4,425183874019593
11:55:59.353;0;Mov;1;12306;9,91;0;0;-0,8146977499275185;0,41871395001068146;-0,003588976900647469;-0,8146977499275185;29,69450972014527;13,397625659962767;-1,1291848506118962
11:55:59.353;0;Mov;1;12307;9,91;0;0,6101260414441358;-0,9163854235015412;0,6101260414441358;0,07536851398224585;-0,9163854235015412;31,586657307657095;21,149327066866054;-0,24414807580797754
11:55:59.353;0;Mov;1;12308;9,91;0;0,6208929954298532;-1,1460799451429793;0,6208929954298532;-0,02990813928647725;-1,1460799451429793;31,09836115604114;32,654805139317;1,0376293221839046
11:55:59.353;0;Mov;1;12309;9,91;-0,515616357062746;-0,6926725297173986;0;-0,6926725297173986;-0,515616357062746;-0,1818414838814585;29,511398663289285;49,01272621845149;3,2654805139316996
11:55:59.353;0;Mov;1;12310;9,91;0;-2,287374444944609;0,9498825275811029;-2,287374444944609;-0,28113650929288614;0,9498825275811029;27,49717703787347;58,10724204229865;6,2868129520554215
11:55:59.360;0;Wrist;1;58645;9,68;0;-0,9056184695158238;0;-0,9056184695158238;-0,00837427881394343;-0,34454178246215705;-36,34754478591265;32,41065706350902;-4,4557023834955904
11:55:59.360;0;Wrist;1;58646;9,68;0;0;-0,5048494030770287;-0,4306772057252724;0,3900021422563097;-0,5048494030770287;-32,50221259193701;44,434949797051914;-13,36710715048677
11:55:59.361;0;Wrist;1;58647;9,68;0;0;-0,9450972014526811;-0,08733176969683676;0,05144199882766007;-0,9450972014526811;-28,443250831629385;54,658650471510974;-26,306955168309578
11:55:59.361;0;Wrist;1;58648;9,68;-0,5120273326631978;-1,3530441974776453;0;-1,3530441974776453;-0,5120273326631978;-0,23328348643452254;-37,47672963652455;68,88027588732567;-32,380138554033024
11:55:59.361;0;Wrist;1;58649;9,68;0;-1,1484725486007263;0;-1,1484725486007263;-0,0358897671437727;-0,27276224817461164;-47,456282235175635;73,9158299508652;-38,69747001556444
11:55:59.387;0;Mov;1;12311;9,8;0;-0,7991454698133793;0;-0,7991454698133793;-0,15552232428968168;-0,06101260637965598;23,56028931546983;38,514358958708456;7,293923764763329
11:55:59.387;0;Mov;1;12312;9,8;-0,8673360393078402;-0,6460158085879085;0;-0,6460158085879085;-0,8673360393078402;0,021533861403884816;22,003845332193976;41,627246925260174;8,758812219611194
11:55:59.388;0;Mov;1;12313;9,8;-1,5935057327112643;0;0;-0,3170262764366588;-1,5935057327112643;-0,2990813928647725;20,11169774468215;42,3902096621601;11,169774468214973
11:55:59.388;0;Mov;1;12314;9,8;-1,3171544303338725;0;0;-0,18543046357615894;-1,3171544303338725;-0,10049134949272515;19,287697988830224;48,00561540574358;16,449476607562488
11:55:59.388;0;Mov;1;12315;9,8;-0,994146585646382;-0,5024567400128178;0;-0,5024567400128178;-0,994146585646382;0,05742363041035951;19,806512649922176;51,0574663533433;20,75258644367809
11:55:59.422;0;Wrist;1;58650;9,78;0,8864772842150639;-2,948942533646657;1,4571245937223427;-2,948942533646657;0,8864772842150639;1,4571245937223427;-57,89361247596668;76,90664387951293;-41,65776543473617
11:55:59.422;0;Wrist;1;58651;9,78;0,7201880059396649;-1,682033729628895;0,7967528663556321;-1,682033729628895;0,7201880059396649;0,7967528663556321;-52,70546586504715;65,46220282601398;-41,04739524521622
11:55:59.422;0;Wrist;1;58652;9,78;0;-1,880623869861446;0,5598803555215613;-1,880623869861446;0,3517197120483261;0,5598803555215613;-37,232581560716575;62,34931485946226;-35,73717459639271
11:55:59.422;0;Wrist;1;58653;9,78;-0,654390099509415;-1,5468490115817743;0;-1,5468490115817743;-0,654390099509415;0,3935911070493942;-27,466658528397474;58,77864925077059;-32,47169408246101
11:55:59.422;0;Wrist;1;58654;9,78;0;-1,189147641872921;0;-1,189147641872921;-0,2990813928647725;0,16628926337378308;-27,80236213263344;60,09094515823847;-29,084139530625325
11:55:59.444;0;Mov;1;12316;9,86;-1,0049134800256356;-0,9522751906453139;0;-0,9522751906453139;-1,0049134800256356;0,1818414838814585;20,905178991058076;52,12561418500321;23,56028931546983
11:55:59.444;0;Mov;1;12317;9,86;-1,1532578747291482;-1,0252510862681967;0;-1,0252510862681967;-1,1532578747291482;0,22849819010933256;20,905178991058076;47,21213415936766;26,21539963988159
11:55:59.444;0;Mov;1;12318;9,86;-1,2776757580034792;-0,6484084716521195;0;-0,6484084716521195;-1,2776757580034792;0,16030763551648763;21,759697256385998;43,18369090853603;30,060731833857233
11:55:59.444;0;Mov;1;12319;9,86;-0,9080111325800347;-0,9558641554383984;0;-0,9558641554383984;-0,9080111325800347;0,1076693014313181;22,247993408001953;45,47257911923582;33,93658253730888
11:55:59.444;0;Mov;1;12320;9,86;0;-1,137705594615009;0,6220892971587267;-1,137705594615009;-0,0693868861249504;0,6220892971587267;19,5623645741142;48,9211706900235;37,385174108096564
11:55:59.479;0;Wrist;1;58655;9,84;0;-1,301602269432661;0;-1,301602269432661;0,26558428878521073;-0,05383465071565905;-27,527695547349467;57,313760795922725;-25,29984435560167
11:55:59.479;0;Wrist;1;58656;9,84;0,8099124237990967;-1,7657765196310313;0,6555864012382885;-1,7657765196310313;0,8099124237990967;0,6555864012382885;-25,086214789269693;53,01065095980712;-23,80443739127781
11:55:59.479;0;Wrist;1;58657;9,84;0;-2,4405041657765434;0,5897884948080385;-2,4405041657765434;-0,4139286536854915;0,5897884948080385;-5,371257667775506;46,60176396984771;-17,853328043458358
11:55:59.479;0;Wrist;1;58658;9,84;0;-1,4487502431943724;0;-1,4487502431943724;-0,3612903345019379;-0,1507370279644917;-1,4343699453718681;41,932432020020144;-12,634662923062837
11:55:59.479;0;Wrist;1;58659;9,84;0;-1,463106221579638;0;-1,463106221579638;-0,11245460520731605;-0,2787438760319071;0,5798516800439466;38,69747001556444;-9,949034089175084
11:55:59.509;0;Wrist;1;58660;9,7;0;-2,10194398136845;0;-2,10194398136845;-0,2524247015385144;0,13757744071779535;0,7019257179479355;37,141026032288586;-9,399700918607135
11:55:59.509;0;Wrist;1;58661;9,7;0;-1,3733818037202064;-0,8481948540070803;-1,3733818037202064;0,1387737722499008;-0,8481948540070803;-2,4719992675557725;40,16235847041231;-5,584887234107486
11:55:59.509;0;Wrist;1;58662;9,7;-0,8565691449285867;-1,9703482877208778;0;-1,9703482877208778;-0,8565691449285867;0,236872466129223;-4,8829615161595505;31,800286873989073;-5,188146610919523
11:55:59.509;0;Wrist;1;58663;9,7;-0,5108310309343241;-1,17718438615833;-0,515616357062746;-1,17718438615833;-0,5108310309343241;-0,515616357062746;-6,225775933103427;38,666951506088445;3,021332438123722
11:55:59.509;0;Wrist;1;58664;9,7;0;-1,3961120134205145;-0,654390099509415;-1,3961120134205145;-0,08852809377813425;-0,654390099509415;-5,371257667775506;37,26310007019257;8,331553086947233
11:55:59.561;0;Mov;1;12321;10,33;0;0;0,7213843076685384;-0,26199529418889433;0,44024782817888425;0,7213843076685384;14,313180944242683;52,919095431379134;35,09628589739677
11:55:59.561;0;Mov;1;12322;10,33;0;0;0;-0,038282419031771674;0,3062593522541734;0,478530228583636;12,665181432538835;66,83553575243386;29,389324625385296
11:55:59.562;0;Mov;1;12323;10,33;0;0;0;-0,37564622347750787;0,058619954491657;0,45580004868655966;11,688589129306925;83,37656788842433;23,46873378704184
11:55:59.562;0;Mov;1;12324;10,33;0;0;0;-0,412732322153386;-0,2703695851104007;0,24524674214911343;14,89303262428663;92,3795281838435;18,402661214026306
11:55:59.562;0;Mov;1;12325;10,33;-0,6723349830813014;-0,7800042845126194;0;-0,7800042845126194;-0,6723349830813014;-0,31582994490455335;18,951994384594258;95,79760124515519;18,951994384594258
11:55:59.563;0;Mov;1;12326;10;-0,8362315982924894;-1,390130385563219;0;-1,390130385563219;-0,8362315982924894;-0,4294808741931669;19,928586687826165;88,74782555619983;22,186956389049957
11:55:59.564;0;Mov;1;12327;10;-0,5694510077784051;-1,8710532176046022;-0,6017517505226295;-1,8710532176046022;-0,5694510077784051;-0,6017517505226295;22,91940061647389;76,57094027527695;25,147251808221686
11:55:59.564;0;Mov;1;12328;10;0;-1,135312991157262;-0,6256782619518113;-1,135312991157262;0,08015381775824382;-0,6256782619518113;23,285622730185857;64,60768456068605;26,337473677785578
11:55:59.564;0;Mov;1;12329;10;0;-0,8039307959418012;-0,522794286648915;-0,8039307959418012;0,4474257577650533;-0,522794286648915;22,095400860621968;54,90279854731895;24,14014099551378
11:55:59.564;0;Mov;1;12330;10;1,0814783404416028;-1,055159225554674;-0,6185003323656423;-1,055159225554674;1,0814783404416028;-0,6185003323656423;20,722067934202094;45,716727195043795;18,860438856166265
11:55:59.582;0;Wrist;1;58665;9,87;0;-1,8519120323038423;0;-1,8519120323038423;-0,25720999786370435;-0,297885061332667;-6,500442518387402;27,527695547349467;10,22370067445906
11:55:59.582;0;Wrist;1;58666;9,87;0;-1,3997009186071352;-0,5574877520638142;-1,3997009186071352;0,1387737722499008;-0,5574877520638142;-5,890072328867458;27,436140018921474;11,62755211035493
11:55:59.582;0;Wrist;1;58667;9,87;0;-1,3841487577059237;-0,5000640769486069;-1,3841487577059237;0,49886777521973324;-0,5000640769486069;-4,699850459303567;22,583697012237923;10,345774712363049
11:55:59.582;0;Wrist;1;58668;9,87;0,5299722162350841;-2,0552873794518876;0;-2,0552873794518876;0,5299722162350841;-0,4569963802186651;-5,462813196203498;20,75258644367809;5,676442762535478
11:55:59.582;0;Wrist;1;58669;9,87;0,6555864012382885;-2,0445205446790977;-0,708224750225074;-2,0445205446790977;0,6555864012382885;-0,708224750225074;-6,073183385723441;20,783104953154087;2,1057771538438064
11:55:59.621;0;Mov;1;12331;10,05;0,8458021909428693;0;0;-0,35650503817674795;0,8458021909428693;-0,3086520153183844;18,70784630878628;36,31702627643666;10,742515335551012
11:55:59.622;0;Mov;1;12332;10,05;0;0;0;-0,1387737722499008;0,3780388865417188;-0,32420423582605973;17,548142948698384;32,13599047822505;3,2654805139316996
11:55:59.622;0;Mov;1;12333;10,05;0;0;0;-0,39119847378841516;-0,0837427900021363;-0,1184362330646115;18,341624195074314;29,11465804010132;-1,6785180211798456
11:55:59.622;0;Mov;1;12334;10,05;0;0;0;-0,47254860072634053;-0,25003203847430344;-0,08852809377813425;17,212439344462418;27,80236213263344;-3,5096285897396773
11:55:59.622;0;Mov;1;12335;10,05;-0,5239905883777887;0;0;-0,028711815205179753;-0,5239905883777887;0,2859218056180761;18,433179723502302;29,053621021149326;-2,410962248603778
11:55:59.630;0;Wrist;1;58670;9,86;0;-1,813629542489395;0;-1,813629542489395;0,1076693014313181;-0,41632131674970246;-10,132145146031068;12,207403790398876;-2,9908139286477247
11:55:59.630;0;Wrist;1;58671;9,86;0;-1,5516343377101962;0;-1,5516343377101962;-0,3923948053205206;-0,417517618478576;-14,252143925290689;6,714072084719382;-4,852443006683553
11:55:59.630;0;Wrist;1;58672;9,86;0;-1,228626433416242;0;-1,228626433416242;-0,24524674214911343;-0,415124985217597;-21,39347514267403;-1,2207403790398876;-3,814813684499649
11:55:59.630;0;Wrist;1;58673;9,86;-0,6173040306367688;-1,13052766502884;0;-1,13052766502884;-0,6173040306367688;-0,11484726082071901;-24,262215033417768;-4,089480269783624;-4,24207281716361
11:55:59.630;0;Wrist;1;58674;9,86;-1,1448836434141056;-1,1867550384151737;0;-1,1867550384151737;-1,1448836434141056;-0,06699423051154745;-25,360881374553667;-3,5706656086916717;-1,4648884548478653
11:55:59.652;0;Mov;1;12336;9,93;-0,5742362743003632;0;0;-0,03708609495047418;-0,5742362743003632;0,21773125102523117;18,89095736564226;30,51850947599719;-1,2207403790398876
11:55:59.652;0;Mov;1;12337;9,93;0;0;0;-0,3732535902165288;-0,3744499217486343;-0,1543260076591922;19,196142460402235;31,495101779229103;0,5188146610919523
11:55:59.652;0;Mov;1;12338;9,93;0;0;0;-0,239265114291818;-0,0023926511894857296;-0,2667806203173162;21,362956633198035;30,091250343333233;1,4343699453718681
11:55:59.652;0;Mov;1;12339;9,93;0;0;0;-0,038282419031771674;0,02273018548518231;0,0705832102062479;22,522659993285927;33,967101046784876;-0,030518509475997192
11:55:59.652;0;Mov;1;12340;9,93;0;0;0;-0,06220893046095347;-0,06340525826765496;-0,0346934430624752;21,240882595294046;39,826654866176334;-2,410962248603778
11:55:59.659;0;Wrist;1;58675;9,73;0;-0,9989318521683401;0;-0,9989318521683401;-0,47494126379055146;-0,06819056204365291;-26,551103244117556;0,18311105685598317;1,281777397991882
11:55:59.659;0;Wrist;1;58676;9,73;0;-0,7955565050202948;0;-0,7955565050202948;-0,20935697500534073;-0,20337534714804528;-25,025177770317697;4,852443006683553;0,7324442274239327
11:55:59.659;0;Wrist;1;58677;9,73;0;-1,5265114053392133;0,6866909018601032;-1,5265114053392133;0,14236275194460127;0,6866909018601032;-24,56740012817774;7,599108859523301;-3,6011841181676685
11:55:59.660;0;Wrist;1;58678;9,73;0,6364452159375286;-1,031232714125492;0;-1,031232714125492;0,6364452159375286;0,1674855800042726;-19,623401593066195;23,194067201757868;-3,662221137119663
11:55:59.660;0;Wrist;1;58679;9,73;0;0;-0,5634693799211097;-0,39957273490668965;-0,00598162785729545;-0,5634693799211097;-21,759697256385998;27,741325113681448;-10,895107882930997
11:55:59.682;0;Mov;1;12341;9,81;0;0;0;-0,21773125102523117;-0,004785302378971459;-0,06340525826765496;25,086214789269693;42,26813562425611;-4,394665364543596
11:55:59.682;0;Mov;1;12342;9,81;-0,5455244963492233;0;0;-0,2440504255186239;-0,5455244963492233;-0,1315958128604999;31,342509231849117;43,45835749382;-5,340739158299509
11:55:59.682;0;Mov;1;12343;9,81;-0,6735312848101749;0;0;-0,20696432684274574;-0,6735312848101749;-0,07417218990094836;36,01184118167669;43,73302407910398;-2,8687398907437363
11:55:59.682;0;Mov;1;12344;9,81;-0,6567827625736259;0;0;-0,25720999786370435;-0,6567827625736259;0,11604358490201651;38,17865535447249;47,7919858394116;-0,09155552842799158
11:55:59.682;0;Mov;1;12345;9,81;-0,8135013885921811;-0,5431318332850124;0;-0,5431318332850124;-0,8135013885921811;0,13518479255520036;41,261024811548204;52,82753990295114;4,821924497207556
11:55:59.719;0;Wrist;1;58680;9,8;0;0;-0,5897884948080385;0,12800683316579944;-0,2703695851104007;-0,5897884948080385;-18,25006866664632;31,586657307657095;-15,2287362285226
11:55:59.719;0;Wrist;1;58681;9,8;-0,6591754256378368;0;-0,9223670513588367;-0,0478530228583636;-0,6591754256378368;-0,9223670513588367;-27,100436414685507;37,26310007019257;-16,693624683370466
11:55:59.719;0;Wrist;1;58682;9,8;0;-0,7465071804330576;-0,5527024259353923;-0,7465071804330576;-0,4055543627639851;-0,5527024259353923;-39,49095126194037;41,169469283120215;-16,602069154942473
11:55:59.719;0;Wrist;1;58683;9,8;0;-1,587524104853969;0;-1,587524104853969;-0,18064516725096896;0,07656483806354335;-39,0942106387524;47,30368968779565;-17,883846552934354
11:55:59.719;0;Wrist;1;58684;9,8;-0,6472121699232459;0;0;-0,29309976500747703;-0,6472121699232459;0,028711815205179753;-29,69450972014527;57,679982909634695;-13,611255226294748
11:55:59.742;0;Mov;1;12346;9,87;-0,7189917042107914;0;0;-0,10288399765532014;-0,7189917042107914;0,24285409398651844;37,537766655476545;59,84679708243049;12,695699942014832
11:55:59.742;0;Mov;1;12347;9,87;-0,6328562511444441;0;0,7417218543046358;0,40675069429609056;-0,6328562511444441;0,7417218543046358;29,908139286477248;73,79375591296122;21,759697256385998
11:55:59.742;0;Mov;1;12348;9,87;-0,5742362743003632;0,8434095278786584;1,728690450758385;0,8434095278786584;-0,5742362743003632;1,728690450758385;20,020142216254158;91,25034333323161;30,060731833857233
11:55:59.742;0;Mov;1;12349;9,87;0;1,3327067104480117;3,3999572264015625;1,3327067104480117;-0,4701559674653615;3,3999572264015625;8,362071596423231;116,27552110354931;34,97421185949278
11:55:59.742;0;Mov;1;12350;9,87;-0,8242683425778985;1,782525101474044;6,0187140453810235;1,782525101474044;-0,8242683425778985;6,0187140453810235;-4,974517044587542;165,59343241676078;47,12057863093966
11:55:59.785;0;Wrist;1;58685;9,9;0;0;0;0,2560136663315989;-0,46058534501174964;0,09690236979802469;-23,80443739127781;80,08056886501663;-3,967406231879635
11:55:59.785;0;Wrist;1;58686;9,9;0;0;1,170006456572161;-0,37684255500961333;-0,11006195704472106;1,170006456572161;-5,1576281014435255;89,20560319833979;6,927701651051363
11:55:59.786;0;Wrist;1;58687;9,9;-0,8087161220702231;1,53368945413831;3,0745567186498612;1,53368945413831;-0,8087161220702231;3,0745567186498612;32,80739768669698;86,03167821283608;18,524735251930295
11:55:59.786;0;Wrist;1;58688;9,9;-2,2514846778008364;5,694509720145268;9,595727980895413;5,694509720145268;-2,2514846778008364;9,595727980895413;79,80590227973266;120,51759392071291;24,964140751365704
11:55:59.786;0;Wrist;1;58689;9,9;-4,331894989623707;16,26285019989624;23,101046784875027;16,26285019989624;-4,331894989623707;23,101046784875027;177,0989104892117;240,33326212347788;5,829035309915464
11:55:59.802;0;Mov;1;12351;9,93;-0,8936552138012329;2,4237557031464583;12,855715163121433;2,4237557031464583;-0,8936552138012329;12,855715163121433;-24,445326090273753;256,66066469313637;73,33597827082126
11:55:59.802;0;Mov;1;12352;9,93;-1,9105320091479232;0;19,485751670888394;0,4306772057252724;-1,9105320091479232;19,485751670888394;-55,574205755790885;433,17972350230417;109,31730094302195
11:55:59.802;0;Mov;1;12353;9,93;-3,645203968550676;0;28,324203848384045;-0,1076693014313181;-3,645203968550676;28,324203848384045;-143,6201055940428;718,9855647450179;169,16409802545243
11:55:59.802;0;Mov;1;12354;9,93;3,3437299722281564;-9,332536355174414;30,41657765434736;-9,332536355174414;3,3437299722281564;30,41657765434736;-327,5551622058779;1000;281,8384350108341
11:55:59.802;0;Mov;1;12355;9,93;0;-30,366332743308817;-5,370305394909512;-30,366332743308817;0,2548173646027253;-5,370305394909512;-218,90926847132786;1000;312,7536851100192
11:55:59.831;0;Mov;1;12356;9,82;-39,201197088534194;-29,587525177770317;-19,211792733542893;-29,587525177770317;-39,201197088534194;-19,211792733542893;198,33979308450574;1000;60,54872280037843
11:55:59.831;0;Mov;1;12357;9,82;-26,554839854121525;-15,737662892544328;15,930271881771294;-15,737662892544328;-26,554839854121525;15,930271881771294;377,88018433179724;439,5580919827876;-176,36646626178776
11:55:59.831;0;Mov;1;12358;9,82;34,41111102633747;-13,86302053132725;-33,783040101321454;-13,86302053132725;34,41111102633747;-33,783040101321454;339,3047883541368;226,69148838770715;-202,79549546800135
11:55:59.831;0;Mov;1;12359;9,82;20,5002346110416;-21,203674810022278;-12,175005531479842;-21,203674810022278;20,5002346110416;-12,175005531479842;168,3400982696005;445,631275368511;73,73271889400921
11:55:59.831;0;Mov;1;12360;9,82;-26,483060319833978;-25,874130222479934;37,73569826349681;-25,874130222479934;-26,483060319833978;37,73569826349681;-73,61064485610522;463,8813440351573;201,69682912686545
11:55:59.843;0;Wrist;1;58690;9,95;3,2372570917386394;18,785901211584825;28,994146168401134;18,785901211584825;3,2372570917386394;28,994146168401134;284,34095278786583;546,9527268288217;-73,64116336558122
11:55:59.843;0;Wrist;1;58691;9,95;0;18,906729712820827;28,04306733909116;18,906729712820827;0,32061527103297527;28,04306733909116;359,202856532487;967,345194860683;-226,44734031189915
11:55:59.843;0;Wrist;1;58692;9,95;-3,4920744861445967;-5,678957678456984;10,542021126438184;-5,678957678456984;-3,4920744861445967;10,542021126438184;516,4036988433485;1000;-412,48817407757804
11:55:59.843;0;Wrist;1;58693;9,95;11,84362315744499;-29,982312616351816;-3,791155879009369;-29,982312616351816;11,84362315744499;-3,791155879009369;729,1177098910489;1000;-528,8857692190313
11:55:59.843;0;Wrist;1;58694;9,95;37,203333384197514;-18,24396496475112;3,230079042939543;-18,24396496475112;37,203333384197514;3,230079042939543;428,0831324198126;1000;-325,81560716574603
11:55:59.869;0;Wrist;1;58695;9,81;19,061056093020415;22,918010116885892;-5,177697359385967;22,918010116885892;19,061056093020415;-5,177697359385967;-73,27494125186927;-144,19995727408673;-58,87020477919858
11:55:59.869;0;Wrist;1;58696;9,81;-21,256313516647847;-18,060928296761986;-6,9697928746910005;-18,060928296761986;-21,256313516647847;-6,9697928746910005;-42,57332071901608;427,4422437208167;-43,64146855067599
11:55:59.869;0;Wrist;1;58697;9,81;1,6724631965849788;-14,188421277504807;33,35714667195654;-14,188421277504807;1,6724631965849788;33,35714667195654;-124,75966673787653;428,69350260933254;-164,1895809808649
11:55:59.869;0;Wrist;1;58698;9,81;16,030762657551804;-10,719077120273447;36,9796212652974;-10,719077120273447;16,030762657551804;36,9796212652974;-63,20383312479019;298,98983733634446;-169,7439497054964
11:55:59.869;0;Wrist;1;58699;9,81;6,167058320871608;-9,013117236854152;31,56265831476791;-9,013117236854152;6,167058320871608;31,56265831476791;45,5946531571398;181,24942777794732;-169,4387646107364
11:55:59.900;0;Wrist;1;58700;9,72;12,20610961485641;-3,4131169030579547;35,39688177129429;-3,4131169030579547;12,20610961485641;35,39688177129429;60,33509323404645;131,90099795525987;-218,23786126285592
11:55:59.900;0;Wrist;1;58701;9,72;26,874258018738363;4,680025826288644;37,49523529770806;4,680025826288644;26,874258018738363;37,49523529770806;58,900723288674584;99,70397045808282;-233,31400494399853
11:55:59.900;0;Wrist;1;58702;9,72;34,18979079561754;12,865285576952422;37,490451521347694;12,865285576952422;34,18979079561754;37,490451521347694;26,795251319925534;41,96295052949614;-193,6399426252022
11:55:59.900;0;Wrist;1;58703;9,72;31,903611102633747;18,601666692098757;37,28109454634236;18,601666692098757;31,903611102633747;37,28109454634236;-29,23673207800531;-49,195837275307476;-117,64885402996917
11:55:59.900;0;Wrist;1;58704;9,72;23,55206266975921;21,74561105685598;37,01910077211829;21,74561105685598;23,55206266975921;37,01910077211829;-53,2853175450911;-146,4888454847865;-43,000579851680044
11:55:59.922;0;Mov;1;12361;10,04;-33,36910992767113;-19,156762138737143;39,19999923703726;-19,156762138737143;-33,36910992767113;39,19999923703726;-177,58720664082767;310,34272286141544;160,46632282479322
11:55:59.922;0;Mov;1;12362;10,04;-19,477376247444074;-10,54680681020539;36,69609286782433;-10,54680681020539;-19,477376247444074;36,69609286782433;-68,11731315042573;202,1546067690054;137,79107028412733
11:55:59.922;0;Mov;1;12363;10,04;-20,714377269814143;-3,3856013672292247;39,19999923703726;-3,3856013672292247;-20,714377269814143;39,19999923703726;-29,328287606433303;174,68794824060794;150,63936277352215
11:55:59.922;0;Mov;1;12364;10,04;-26,764196829126867;6,119205298013245;39,19999923703726;6,119205298013245;-26,764196829126867;39,19999923703726;-91,28086184270761;135,22751548814355;122,8370006408887
11:55:59.922;0;Mov;1;12365;10,04;-29,03960730307932;14,973211424604022;39,19999923703726;14,973211424604022;-29,03960730307932;39,19999923703726;-128,2998138370922;50,11139255958739;66,3472396008179
11:55:59.969;0;Wrist;1;58705;9,83;19,03114795373394;23,869088946195866;36,460413678395945;23,869088946195866;19,03114795373394;36,460413678395945;-21,17984557634205;-226,63045136875516;2,197332682271798
11:55:59.969;0;Wrist;1;58706;9,83;19,105319376201667;24,43255790887173;33,62871181371502;24,43255790887173;19,105319376201667;33,62871181371502;17,639698477126377;-292,73354289376505;35,27939695425275
11:55:59.969;0;Wrist;1;58707;9,83;19,48335787530137;23,325956755272074;29,863876003296;23,325956755272074;19,48335787530137;29,863876003296;23,68236335337382;-353,12967314676354;72,45094149601734
11:55:59.969;0;Wrist;1;58708;9,83;18,059730445265053;21,759966200750757;25,73655278176214;21,759966200750757;18,059730445265053;25,73655278176214;11,53599658192694;-414,2582476271859;119,32737205114903
11:55:59.969;0;Wrist;1;58709;9,83;16,28797265541551;18,659091082491532;22,780432676168097;18,659091082491532;16,28797265541551;22,780432676168097;-1,4954069643238623;-471,26682332834866;170,8120975371563
11:55:59.982;0;Mov;1;12366;10,1;-27,377910702841273;21,296988967558825;39,19999923703726;21,296988967558825;-27,377910702841273;39,19999923703726;-101,47404400769067;-43,79406109805597;27,741325113681448
11:55:59.982;0;Mov;1;12367;10,1;-18,172185430463575;27,398249382000184;39,19999923703726;27,398249382000184;-18,172185430463575;39,19999923703726;-85,05508590960417;-142,3688467055269;-11,230811487166967
11:55:59.982;0;Mov;1;12368;10,1;-12,974150822473831;33,798589281899474;39,19999923703726;33,798589281899474;-12,974150822473831;39,19999923703726;-80,5078279976806;-210,24201178014465;-31,678212836085084
11:55:59.983;0;Mov;1;12369;10,1;-12,958598780785547;34,427858058412426;39,18086031678213;34,427858058412426;-12,958598780785547;39,18086031678213;-45,6556901760918;-259,6514786217841;-31,556138798181095
11:55:59.983;0;Mov;1;12370;10,1;-10,866224974822229;32,930059205908385;38,52288125247963;32,930059205908385;-10,866224974822229;38,52288125247963;-14,89303262428663;-356,5477462080752;-32,898953215124976
11:55:59.983;0;Mov;1;12371;9,84;-10,079042939542832;31,494468520157476;37,67468413342692;31,494468520157476;-10,079042939542832;37,67468413342692;-23,621326334421827;-470,3512680440687;-44,282357249671925
11:55:59.983;0;Mov;1;12372;9,84;-12,755223433637502;29,311172444837794;36,6948950163274;29,311172444837794;-12,755223433637502;36,6948950163274;-42,146061586352126;-554,857020783105;-63,447981200598164
11:55:59.983;0;Mov;1;12373;9,84;-14,540141376995148;22,481351283303322;35,64452040162359;22,481351283303322;-14,540141376995148;35,64452040162359;-48,03613391521958;-619,983520004883;-96,22486037781914
11:55:59.983;0;Mov;1;12374;9,84;-13,652467612231819;13,33544133579516;33,98401974547563;13,33544133579516;-13,652467612231819;33,98401974547563;-59,14487136448256;-688,8027588732566;-142,3993652150029
11:55:59.983;0;Mov;1;12375;9,84;-11,511044839320048;4,810425218207342;27,99043053987243;4,810425218207342;-11,511044839320048;27,99043053987243;-87,61864070558794;-742,7900021362957;-195,25742362743003
11:56:00.019;0;Wrist;1;58710;9,83;13,108139477217932;15,119163335062716;19,113694799645984;15,119163335062716;13,108139477217932;19,113694799645984;-14,984588152714622;-529,7708059938352;222,66304513687552
11:56:00.019;0;Wrist;1;58711;9,83;7,116940729239784;12,520744003112888;10,454689550462355;12,520744003112888;7,116940729239784;10,454689550462355;-17,27347636341441;-582,4457533494065;269,8446607867672
11:56:00.019;0;Wrist;1;58712;9,83;2,4704123050630207;10,012049089022492;4,897756794183172;10,012049089022492;2,4704123050630207;4,897756794183172;-1,4648884548478653;-608,691671498764;300,9430219428083
11:56:00.019;0;Wrist;1;58713;9,83;1,409271570863979;5,548558286538285;6,620465617084261;5,548558286538285;1,409271570863979;6,620465617084261;8,362071596423231;-622,2418897061068;318,88790551469464
11:56:00.019;0;Wrist;1;58714;9,83;0,7572740748123111;0,5335612406346324;8,21995357371746;0,5335612406346324;0,7572740748123111;8,21995357371746;4,119998779259621;-646,2294381542406;331,88879055146947
11:56:00.050;0;Wrist;1;58715;9,74;-2,7443710039826654;-3,1989747211371196;5,547361865596485;-3,1989747211371196;-2,7443710039826654;5,547361865596485;3,7842951750236518;-668,5079500717185;344,06567583239234
11:56:00.051;0;Wrist;1;58716;9,74;-6,423071897793512;-6,26754957350383;3,377227135914182;-6,26754957350383;-6,423071897793512;3,377227135914182;14,648884548478652;-664,4795068208869;343,8215277565844
11:56:00.051;0;Wrist;1;58717;9,74;-5,6167485580004275;-9,799103328043458;3,7708183919797356;-9,799103328043458;-5,6167485580004275;3,7708183919797356;15,564439832758568;-637,3485518967253;332,80434583574936
11:56:00.051;0;Wrist;1;58718;9,74;-1,3566332218771935;-14,651399464400159;6,16825474181341;-14,651399464400159;-1,3566332218771935;6,16825474181341;-16,388439588610492;-605,0599688711203;318,94894253364663
11:56:00.051;0;Wrist;1;58719;9,74;-0,6819055757316813;-21,069687108981597;8,544157422101504;-21,069687108981597;-0,6819055757316813;8,544157422101504;-48,615985595263524;-586,7183446760461;307,29087191381575
11:56:00.072;0;Mov;1;12376;10,04;-9,160265091402936;-2,7611194666127505;21,64511932737205;-2,7611194666127505;-9,160265091402936;21,64511932737205;-121,86040833765679;-765,5262916959135;-245,06363109225745
11:56:00.072;0;Mov;1;12377;10,04;-8,379064683980834;-10,589874149296548;21,499166463209935;-10,589874149296548;-8,379064683980834;21,499166463209935;-153,59965819269388;-753,5935544907986;-286,1110263374737
11:56:00.072;0;Mov;1;12378;10,04;-10,726255645924253;-20,817260887478255;25,943515961180456;-20,817260887478255;-10,726255645924253;25,943515961180456;-169,10306100650044;-738,7920773949401;-326,7311624500259
11:56:00.072;0;Mov;1;12379;10,04;-14,166887607959227;-27,88754501480148;23,659731971190528;-27,88754501480148;-14,166887607959227;23,659731971190528;-150,36469618823816;-774,9259926145207;-373,36344492934967
11:56:00.072;0;Mov;1;12380;10,04;-12,275497260963775;-30,81734672078616;19,157958082827236;-30,81734672078616;-12,275497260963775;19,157958082827236;-101,0467848750267;-779,6258430738243;-413,9835810419019
11:56:00.102;0;Mov;1;12381;9,94;-6,14672107226783;-32,52330851161229;19,73578409680471;-32,52330851161229;-6,14672107226783;19,73578409680471;-73,73271889400921;-742,5153355510117;-428,8460951567125
11:56:00.102;0;Mov;1;12382;9,94;-3,7026276436658834;-37,23802529984435;27,14462721640675;-37,23802529984435;-3,7026276436658834;27,14462721640675;-96,28589739677115;-715,3538621173742;-416,1809137241737
11:56:00.102;0;Mov;1;12383;9,94;-2,9357830954161197;-39,201197088534194;29,652127140110476;-39,201197088534194;-2,9357830954161197;29,652127140110476;-131,13803521835993;-707,327494125187;-397,7782525101474
11:56:00.102;0;Mov;1;12384;9,94;1,118564409314249;-39,201197088534194;23,547276985992003;-39,201197088534194;1,118564409314249;23,547276985992003;-144,16943876461073;-678,6095767082736;-366,9850764488662
11:56:00.102;0;Mov;1;12385;9,94;11,849604785302287;-39,201197088534194;16,11570139164403;-39,201197088534194;11,849604785302287;16,11570139164403;-149,63225196081424;-626,1177404095585;-308,96938993499555
11:56:00.131;0;Mov;1;12386;9,84;20,562444685201573;-39,201197088534194;13,528049371318705;-39,201197088534194;20,562444685201573;13,528049371318705;-173,19254127628406;-571,3064973906675;-224,49415570543533
11:56:00.131;0;Mov;1;12387;9,84;19,55992309335612;-39,201197088534194;8,381457525864437;-39,201197088534194;19,55992309335612;8,381457525864437;-167,3024689474166;-516,0069582201605;-134,8002563554796
11:56:00.131;0;Mov;1;12388;9,84;21,459688863795893;-39,201197088534194;-7,085836645863216;-39,201197088534194;21,459688863795893;-7,085836645863216;-104,46485793633839;-440,1074251533555;-49,71465193639943
11:56:00.131;0;Mov;1;12389;9,84;25,535569322794274;-39,201197088534194;-25,186243018890956;-39,201197088534194;25,535569322794274;-25,186243018890956;-41,65776543473617;-341,22745445112463;26,825769829401533
11:56:00.131;0;Mov;1;12390;9,84;19,287162007507554;-39,201197088534194;-37,06934568315683;-39,201197088534194;19,287162007507554;-37,06934568315683;-5,554368724631489;-258,6138492996002;75,83849604785303
11:56:00.140;0;Wrist;1;58720;9,94;-2,7587268631550037;-27,898312326425977;7,48540929136021;-27,898312326425977;-2,7587268631550037;7,48540929136021;-35,76769310586871;-577,7153843806268;306,4973906674398
11:56:00.140;0;Wrist;1;58721;9,94;-2,6259346293527024;-33,53659550767541;3,1810298375652333;-33,53659550767541;-2,6259346293527024;3,1810298375652333;-9,552293465987121;-563,6463515121922;301,2482070375683
11:56:00.140;0;Wrist;1;58722;9,94;-1,416449500450148;-38,081434827723015;1,6102541953413496;-38,081434827723015;-1,416449500450148;1,6102541953413496;-11,139255958738975;-525,0709555345317;277,4742881557665
11:56:00.140;0;Wrist;1;58723;9,94;-0,9606494815668203;-39,201197088534194;7,984277245399334;-39,201197088534194;-0,9606494815668203;7,984277245399334;-28,47376934110538;-483,6878566850795;237,15933713797418
11:56:00.140;0;Wrist;1;58724;9,94;1,1735953617587818;-39,201197088534194;19,620935316019164;-39,201197088534194;1,1735953617587818;19,620935316019164;-19,745475630970184;-458,4490493484298;189,55046235541857
11:56:00.168;0;Wrist;1;58725;9,84;1,006109781754509;-39,201197088534194;19,431917020172733;-39,201197088534194;1,006109781754509;19,431917020172733;5,401776177251503;-450,57527390362253;151,58543656727807
11:56:00.169;0;Wrist;1;58726;9,84;-8,237898457289345;-39,201197088534194;-6,078530323953978;-39,201197088534194;-8,237898457289345;-6,078530323953978;28,290658284249396;-442,67097994933926;120,6091494491409
11:56:00.169;0;Wrist;1;58727;9,84;-5,378679864650411;-39,201197088534194;-30,83888134403516;-39,201197088534194;-5,378679864650411;-30,83888134403516;17,517624439222388;-330,75960570085755;60,21301919614246
11:56:00.169;0;Wrist;1;58728;9,84;6,741294595171972;-39,201197088534194;-28,903225806451612;-39,201197088534194;6,741294595171972;-28,903225806451612;-48,49391155735954;-188,39075899533066;7,690664387951292
11:56:00.169;0;Wrist;1;58729;9,84;9,047810106204413;-39,201197088534194;-24,7376209295938;-39,201197088534194;9,047810106204413;-24,7376209295938;-62,685018463698235;-85,69597460860011;-13,275551622058778
11:56:00.192;0;Mov;1;12391;9,9;12,779149945066683;-39,201197088534194;-37,927110354930264;-39,201197088534194;12,779149945066683;-37,927110354930264;25,33036286507767;-158,26899014252143;104,98367259743034
11:56:00.192;0;Mov;1;12392;9,9;8,760691969054232;-39,201197088534194;-32,76137577440718;-39,201197088534194;8,760691969054232;-32,76137577440718;45,83880123294778;-39,49095126194037;100,10071108127079
11:56:00.192;0;Mov;1;12393;9,9;7,4818205053865166;-39,201197088534194;-32,59269615771966;-39,201197088534194;7,4818205053865166;-32,59269615771966;69,33805352946563;57,52739036225471;66,10309152500992
11:56:00.192;0;Mov;1;12394;9,9;9,3289466154973;-39,201197088534194;-28,25003242591632;-39,201197088534194;9,3289466154973;-28,25003242591632;93,4476760155034;172,33802301095614;40,68117313150426
11:56:00.192;0;Mov;1;12395;9,9;7,413629757072664;7,619397946104312;-31,41311761833552;7,619397946104312;7,413629757072664;-31,41311761833552;75,71642200994903;288,0642109439375;119,20529801324503
11:56:00.253;0;Mov;1;12396;9,95;-15,271095919675282;29,709549623096407;-6,577398277993103;29,709549623096407;-15,271095919675282;-6,577398277993103;139,0423291726432;697,2563859981078;319,22360911893065
11:56:00.254;0;Mov;1;12397;9,95;-21,625978499710076;-39,201197088534194;-4,855885399182104;-39,201197088534194;-21,625978499710076;-4,855885399182104;604,5716727195044;1000;400,7385479293191
11:56:00.254;0;Mov;1;12398;9,95;15,663491470076602;-32,82478179265725;3,405938854258858;-32,82478179265725;15,663491470076602;3,405938854258858;966,6127506332591;1000;305,24613177892394
11:56:00.254;0;Mov;1;12399;9,95;-3,913181039613025;9,567015785699027;-7,410040971098971;9,567015785699027;-3,913181039613025;-7,410040971098971;-7,293923764763329;-107,97448652607807;2,044740134891812
11:56:00.254;0;Mov;1;12400;9,95;3,9107884361552783;37,49404126102481;-6,505618743705558;37,49404126102481;3,9107884361552783;-6,505618743705558;-85,97064119388409;-7,202368236335337;-62,59346293527024
11:56:00.259;0;Wrist;1;58730;10,03;11,566075434125798;-39,201197088534194;-39,201197088534194;-39,201197088534194;11,566075434125798;-39,201197088534194;-9,521774956511123;15,411847285378583;-17,73125400555437
11:56:00.260;0;Wrist;1;58731;10,03;0,6196966340945158;-36,2785729544969;-39,201197088534194;-36,2785729544969;0,6196966340945158;-39,201197088534194;38,972136600848415;196,05090487380596;-60,274056215094454
11:56:00.260;0;Wrist;1;58732;10,03;-29,91172902615436;8,873146954252753;-39,201197088534194;8,873146954252753;-29,91172902615436;-39,201197088534194;257,6372569963683;717,093417157506;-255,2873317667165
11:56:00.260;0;Wrist;1;58733;10,03;21,417817468794823;1,9978637043366803;-9,796710486159856;1,9978637043366803;21,417817468794823;-9,796710486159856;83,13241981261635;1000;-463,78978850672934
11:56:00.260;0;Wrist;1;58734;10,03;26,290450376903593;-15,328520310068056;3,0649860663930175;-15,328520310068056;26,290450376903593;3,0649860663930175;-696,3103122043519;1000;-182,16498306222724
11:56:00.261;0;Wrist;1;58735;9,82;-25,524802011169776;23,495834223456527;-5,442084929197058;23,495834223456527;-25,524802011169776;-5,442084929197058;46,35761589403973;-182,13446455275124;-57,222205267494736
11:56:00.262;0;Wrist;1;58736;9,82;5,733988750114444;12,593719481490524;0;12,593719481490524;5,733988750114444;-0,040675070919770656;266,82332834864343;84,20056764427625;20,630512405774102
11:56:00.262;0;Wrist;1;58737;9,82;4,457509174626911;5,7746637241737115;-4,562785634174627;5,7746637241737115;4,457509174626911;-4,562785634174627;-30,610065004425184;228,64467299417097;-10,43733024079104
11:56:00.262;0;Wrist;1;58738;9,82;24,692159794915618;-39,201197088534194;-21,777911084322643;-39,201197088534194;24,692159794915618;-21,777911084322643;-51,1490218817713;170,50691244239633;-59,45005645924253
11:56:00.262;0;Wrist;1;58739;9,82;-3,5590685750907927;-16,27481345561083;6,481692232276376;-16,27481345561083;-3,5590685750907927;6,481692232276376;-60,33509323404645;-49,592577898495435;-56,21509445478683
11:56:00.282;0;Mov;1;12401;9,86;-18,12194051942503;-8,07878639332255;-4,897756794183172;-8,07878639332255;-18,12194051942503;-4,897756794183172;73,03079317606128;284,89028595843376;21,362956633198035
11:56:00.282;0;Mov;1;12402;9,86;2,0050417531357767;-39,201197088534194;-9,171032403027436;-39,201197088534194;2,0050417531357767;-9,171032403027436;88,62575151829584;182,25653859065523;59,90783410138249
11:56:00.282;0;Mov;1;12403;9,86;10,872206602679524;5,4038027970213935;2,4381115623187966;5,4038027970213935;10,872206602679524;2,4381115623187966;12,39051484725486;-49,62309640797143;16,541032135990477
11:56:00.282;0;Mov;1;12404;9,86;-0,579021600428785;0;2,3483871444593647;0,09809870133013016;-0,579021600428785;2,3483871444593647;-9,88799707022309;13,36710715048677;-12,909329508346813
11:56:00.283;0;Mov;1;12405;9,86;-0,9044221677869503;-4,936039403210547;0;-4,936039403210547;-0,9044221677869503;0,028711815205179753;-6,256294442579424;51,72887356181524;-11,993774224066897
11:56:00.324;0;Wrist;1;58740;9,87;-7,091818273720511;-0,6508011347163305;3,873702248069704;-0,6508011347163305;-7,091818273720511;3,873702248069704;-13,36710715048677;-55,33005767998291;-10,284737693411055
11:56:00.324;0;Wrist;1;58741;9,87;-2,3089083529160437;-3,5171971800897244;1,1472762468718527;-3,5171971800897244;-2,3089083529160437;1,1472762468718527;-0,18311105685598317;-18,005920590838343;21,668141727958005
11:56:00.324;0;Wrist;1;58742;9,87;5,600000095370342;-3,2934843459120455;-1,1149755041276284;-3,2934843459120455;5,600000095370342;-1,1149755041276284;0,640888698995941;-1,922666096987823;23,010956144901883
11:56:00.324;0;Wrist;1;58743;9,87;1,7442427308725241;-5,716043866542558;-1,365007453192236;-5,716043866542558;1,7442427308725241;-1,365007453192236;-8,48414563432722;-0,15259254737998595;2,533036286507767
11:56:00.324;0;Wrist;1;58744;9,87;0;-1,6126469180120242;-2,0433241237372965;-1,6126469180120242;-0,23089083827192755;-2,0433241237372965;-18,219550157170325;-3,295999023407697;-7,9958494827112645
11:56:00.343;0;Mov;1;12406;9,91;-2,7288187238685264;-6,25678273873104;-1,282461084131901;-6,25678273873104;-2,7288187238685264;-1,282461084131901;-6,8666646320993685;41,566209906308174;-8,606219672231209
11:56:00.343;0;Mov;1;12407;9,91;-1,7334757768868068;-4,084255405590991;-2,0768212874233223;-4,084255405590991;-1,7334757768868068;-2,0768212874233223;-0,8545182653279214;21,881771294289987;-0,7019257179479355
11:56:00.343;0;Mov;1;12408;9,91;1,9739371929074985;-2,078017469939268;0;-2,078017469939268;1,9739371929074985;-0,24524674214911343;0,5493331705679495;18,768883327738273;1,2207403790398876
11:56:00.343;0;Mov;1;12409;9,91;-2,6558427686391797;-3,1259987659077733;-0,8505875170712912;-3,1259987659077733;-2,6558427686391797;-0,8505875170712912;-2,9908139286477247;31,342509231849117;1,5259254737998595
11:56:00.343;0;Mov;1;12410;9,91;-0,6220892971587267;-4,2912200155644395;-0,5670583447141941;-4,2912200155644395;-0,6220892971587267;-0,5670583447141941;-3,662221137119663;29,847102267525255;9,765923032319101
11:56:00.349;0;Wrist;1;58745;9,77;1,721512521172216;-2,179705143513291;-1,0408032471694082;-2,179705143513291;1,721512521172216;-1,0408032471694082;-34,15021210364086;10,742515335551012;-25,54399243140965
11:56:00.350;0;Wrist;1;58746;9,77;2,2790002136295664;-5,480367538224433;0;-5,480367538224433;2,2790002136295664;0,2596026609279153;-45,045319986571855;17,975402081362347;-43,45835749382
11:56:00.350;0;Wrist;1;58747;9,77;0;-6,10245683538316;0,7249733320680868;-6,10245683538316;-0,09929502541142765;0,7249733320680868;-43,09213538010803;22,06488235114597;-50,66072573015534
11:56:00.350;0;Wrist;1;58748;9,77;1,7645802179021577;-5,577270004882961;0;-5,577270004882961;1,7645802179021577;-0,49049348429822687;-48,371837519455546;34,45539719840083;-51,91198461867123
11:56:00.350;0;Wrist;1;58749;9,77;0;-7,126511619922483;0;-7,126511619922483;-0,19500107112815485;0,3469344157231361;-37,995544297616505;21,027253028962065;-58,32087160863063
11:56:00.402;0;Mov;1;12411;9,95;1,0910489926984466;-3,3305705339976197;0;-3,3305705339976197;1,0910489926984466;-0,46058534501174964;-7,843256935331278;24,933622241889704;10,22370067445906
11:56:00.402;0;Mov;1;12412;9,95;0,598162785729545;-2,871181371501816;0;-2,871181371501816;0,598162785729545;-0,3708609271523179;-13,428144169438765;26,490066225165563;6,103701895199438
11:56:00.402;0;Mov;1;12413;9,95;0;-2,338816492202521;0;-2,338816492202521;-0,19500107112815485;0,11484726082071901;-18,402661214026306;31,495101779229103;2,8992584002197335
11:56:00.402;0;Mov;1;12414;9,95;-2,0385389168218024;-3,5985473666341137;0;-3,5985473666341137;-2,0385389168218024;-0,052638326634361556;-19,47080904568621;36,07287820062868;5,7374797814874725
11:56:00.402;0;Mov;1;12415;9,95;-1,3721855019913327;-4,849903771324809;-0,9331339457380902;-4,849903771324809;-1,3721855019913327;-0,9331339457380902;-14,435254982146672;33,7229529709769;12,054811243018891
11:56:00.440;0;Wrist;1;58750;9,95;-2,1091220301675464;-6,557060552537614;0,7118137150181585;-6,557060552537614;-2,1091220301675464;0,7118137150181585;-19,806512649922176;15,594958342234566;-47,73094882045961
11:56:00.440;0;Wrist;1;58751;9,95;-1,257338151760918;-6,261567945646535;0;-6,261567945646535;-1,257338151760918;0,0358897671437727;-11,963255714590899;20,172734763634143;-28,229621265297403
11:56:00.440;0;Wrist;1;58752;9,95;-1,2657125022888882;-6,219696550645467;0;-6,219696550645467;-1,2657125022888882;-0,06460158234895245;-4,577776421399578;17,27347636341441;-11,474959562974945
11:56:00.440;0;Wrist;1;58753;9,95;-1,1365092928861353;-5,059260746330149;0,5670583447141941;-5,059260746330149;-1,1365092928861353;0,5670583447141941;4,272591326639607;17,91436506241035;2,044740134891812
11:56:00.440;0;Wrist;1;58754;9,95;0,5287759145062105;-6,067763489181188;-1,7382611030152286;-6,067763489181188;0,5287759145062105;-1,7382611030152286;6,225775933103427;24,23169652394177;10,925626392406995
11:56:00.469;0;Mov;1;12416;10,02;0;-5,0042301515244;-1,203503501045259;-5,0042301515244;0,3708609271523179;-1,203503501045259;-9,308145390179144;26,0933256019776;14,55732902005066
11:56:00.469;0;Mov;1;12417;10,02;0;-5,212390705587939;-1,0814783404416028;-5,212390705587939;0,4581927117507706;-1,0814783404416028;-6,561479537339396;19,257179479354228;11,017181920834986
11:56:00.469;0;Mov;1;12418;10,02;0;-4,9814995841853085;-0,8924589120723594;-4,9814995841853085;0,20457167868015075;-0,8924589120723594;-4,0284432508316295;11,597033600878934;5,21866512039552
11:56:00.469;0;Mov;1;12419;10,02;0;-4,523307081057161;-0,7142063780823694;-4,523307081057161;-0,025122837373181287;-0,7142063780823694;-2,7771843623157446;5,249183629871517;0,18311105685598317
11:56:00.469;0;Mov;1;12420;10,02;0;-4,327109782708212;-0,7800042845126194;-4,327109782708212;-0,11365092928861355;-0,7800042845126194;-1,3733329264198737;1,281777397991882;-2,807702871791742
11:56:00.504;0;Wrist;1;58755;10,01;0,8553727835932493;-6,512796315652944;-1,2190557811593983;-6,512796315652944;0,8553727835932493;-1,2190557811593983;7,782219916379284;12,054811243018891;15,045625171666616
11:56:00.504;0;Wrist;1;58756;10,01;1,0288399914548174;-6,232856227301858;-1,0910489926984466;-6,232856227301858;1,0288399914548174;-1,0910489926984466;5,493331705679495;-1,5259254737998595;15,625476851710562
11:56:00.504;0;Wrist;1;58757;10,01;0,5826105652218696;-6,39914538636433;-0,9690237128818628;-6,39914538636433;0,5826105652218696;-0,9690237128818628;2,838221381267739;-13,36710715048677;15,381328775902585
11:56:00.504;0;Wrist;1;58758;10,01;0;-6,039051770836513;-0,522794286648915;-6,039051770836513;0,2990813928647725;-0,522794286648915;3,47911008026368;-21,362956633198035;18,402661214026306
11:56:00.504;0;Wrist;1;58759;10,01;0;-5,77346730323191;-0,5108310309343241;-5,77346730323191;0,39837643317781607;-0,5108310309343241;6,225775933103427;-24,78102969450972;22,431104464857935
11:56:00.524;0;Mov;1;12421;10,05;0;-4,199102755821405;-1,0695150847270118;-4,199102755821405;0,004785302378971459;-1,0695150847270118;-0,45777764213995786;-0,36622211371196634;-4,333628345591602
11:56:00.526;0;Mov;1;12422;10,05;0,5838068669507431;-4,362999549851986;-1,0898525717566454;-4,362999549851986;0,5838068669507431;-1,0898525717566454;-0,3051850947599719;-0,061037018951994385;-5,706961272011475
11:56:00.526;0;Mov;1;12423;10,05;1,1532578747291482;-4,51134382534257;-1,0372143419827875;-4,51134382534257;1,1532578747291482;-1,0372143419827875;-1,1902218695638904;-0,5188146610919523;-9,308145390179144
11:56:00.526;0;Mov;1;12424;10,05;1,292031617175817;-4,652510052034058;-1,0384106437116611;-4,652510052034058;1,292031617175817;-1,0384106437116611;-2,9602954191717274;-1,9837031159398175;-16,144291512802514
11:56:00.526;0;Mov;1;12425;10,05;0,8242683425778985;-4,775731872005371;-1,0252510862681967;-4,775731872005371;0,8242683425778985;-1,0252510862681967;-2,3194067201757864;-5,829035309915464;-22,40058595538194
11:56:00.548;0;Wrist;1;58760;9,98;0;-5,3523605113376265;0;-5,3523605113376265;0,2560136663315989;-0,2153386028626362;8,423108615375225;-28,443250831629385;24,35377056184576
11:56:00.548;0;Wrist;1;58761;9,98;0,5168126587916196;-5,177697359385967;0;-5,177697359385967;0,5168126587916196;-0,021533861403884816;9,67436750389111;-28,534806360057374;25,42191839350566
11:56:00.548;0;Wrist;1;58762;9,98;0;-4,569963682973723;0;-4,569963682973723;0,44503312450407423;-0,16150395214697713;9,399700918607135;-25,45243690298166;27,222510452589496
11:56:00.548;0;Wrist;1;58763;9,98;0,6185003323656423;-4,493398941770684;0;-4,493398941770684;0,6185003323656423;-0,23806879766132846;7,751701406903287;-19,98962370677816;28,504287850581377
11:56:00.548;0;Wrist;1;58764;9,98;0,8338389352282785;-4,337876617481002;0;-4,337876617481002;0,8338389352282785;-0,30027772439687794;6,225775933103427;-10,803552354503006;27,92443617053743
11:56:00.559;0;Mov;1;12426;9,98;0;-4,197906334879605;-0,6783166109385967;-4,197906334879605;-0,36009400296983246;-0,6783166109385967;2,3194067201757864;-9,308145390179144;-24,292733542893764
11:56:00.559;0;Mov;1;12427;9,98;-0,9845759929960021;-3,494467089602344;-0,5694510077784051;-3,494467089602344;-0,9845759929960021;-0,5694510077784051;7,354960783715323;-9,826960051271096;-23,651844843897823
11:56:00.559;0;Mov;1;12428;9,98;-0,7165990411465804;-3,1451400704214607;-0,588592193079165;-3,1451400704214607;-0,7165990411465804;-0,588592193079165;9,979552598651082;-6,683553575243385;-21,72917874691
11:56:00.559;0;Mov;1;12429;9,98;0;-3,719376344721824;-0,6185003323656423;-3,719376344721824;-0,41153599062128055;-0,6185003323656423;9,949034089175084;-4,791405987731559;-19,806512649922176
11:56:00.559;0;Mov;1;12430;9,98;-0,5455244963492233;-3,7289469969786677;-0,8087161220702231;-3,7289469969786677;-0,5455244963492233;-0,8087161220702231;9,582811975463118;-7,141331217383343;-19,684438612018187
11:56:00.560;0;Wrist;1;58765;9,83;1,0683187829981384;-4,385729640339366;0;-4,385729640339366;1,0683187829981384;-0,16270028367908262;4,821924497207556;-2,685628833887753;24,35377056184576
11:56:00.560;0;Wrist;1;58766;9,83;1,0611408534119693;-4,892971587267678;0;-4,892971587267678;1,0611408534119693;-0,15911130398438214;4,516739402447585;3,1128879665517135;19,104586931974243
11:56:00.561;0;Wrist;1;58767;9,83;0,8087161220702231;-5,206409077730644;0;-5,206409077730644;0,8087161220702231;-0,3672719623592334;3,69273964659566;6,19525742362743;14,923551133762627
11:56:00.561;0;Wrist;1;58768;9,83;0,5072420661412397;-5,187267773216956;-0,5443281350138859;-5,187267773216956;0,5072420661412397;-0,5443281350138859;3,051850947599719;7,080294198431349;13,397625659962767
11:56:00.561;0;Wrist;1;58769;9,83;0;-5,349968146305734;-0,6651570534951323;-5,349968146305734;0,3852168459311197;-0,6651570534951323;2,2278511917477952;5,584887234107486;13,733329264198737
11:56:00.585;0;Mov;1;12431;9,95;-0,7309549599253823;-3,6356335547196874;-0,937919271866512;-3,6356335547196874;-0,7309549599253823;-0,937919271866512;9,765923032319101;-8,270516067995239;-21,485030671102024
11:56:00.585;0;Mov;1;12432;9,95;-0,8469984926717429;-3,554283368175298;-0,5586840537926878;-3,554283368175298;-0,8469984926717429;-0,5586840537926878;9,186071352275155;-9,03347880489517;-21,576586199530016
11:56:00.585;0;Mov;1;12433;9,95;-0,9833796316606647;-2,9166417909024323;-1,5851313821832942;-2,9166417909024323;-0,9833796316606647;-1,5851313821832942;7,629627368999298;-7,232886745811334;-18,982512894070254
11:56:00.585;0;Mov;1;12434;9,95;0;-3,696646015808588;0,6005554487937559;-3,696646015808588;-0,22132023071993165;0,6005554487937559;7,17184972685934;21,454512161626027;-18,15851313821833
11:56:00.585;0;Mov;1;12435;9,95;0;-3,812689786980804;-1,228626433416242;-3,812689786980804;-0,1064729773500206;-1,228626433416242;1,4954069643238623;-9,979552598651082;-11,322367015594958
11:56:00.619;0;Wrist;1;58770;9,93;0;-5,572484797967467;-0,6400341807306131;-5,572484797967467;0,3553087066446425;-0,6400341807306131;0,5493331705679495;0,18311105685598317;14,77095858638264
11:56:00.619;0;Wrist;1;58771;9,93;0,5467207980780968;-5,305703909421064;-0,5598803555215613;-5,305703909421064;0,5467207980780968;-0,5598803555215613;-1,4648884548478653;-7,4159978026673175;15,137180700094607
11:56:00.619;0;Wrist;1;58772;9,93;0,9187780865657521;-5,248280472731712;-0,6065370766510514;-5,248280472731712;0,9187780865657521;-0,6065370766510514;-2,8687398907437363;-13,733329264198737;13,031403546250802
11:56:00.619;0;Wrist;1;58773;9,93;0,9833796316606647;-5,260243728446302;-0,598162785729545;-5,260243728446302;0,9833796316606647;-0,598162785729545;-4,699850459303567;-17,48710592974639;10,040589617603077
11:56:00.619;0;Wrist;1;58774;9,93;0,5084383678701132;-4,908524105807673;-0,5826105652218696;-4,908524105807673;0,5084383678701132;-0,5826105652218696;-6,19525742362743;-19,5928830835902;8,056886501663259
11:56:00.643;0;Mov;1;12436;9,72;0;-4,206280804620502;-0,7297585985900449;-4,206280804620502;0,2560136663315989;-0,7297585985900449;0,3357036042359691;-6,0121463667714465;-13,122959074678793
11:56:00.643;0;Mov;1;12437;9,72;0;-3,749284484008301;-0,8218756795136876;-3,749284484008301;0,0011963255947428648;-0,8218756795136876;-1,0071108127079074;-14,34369945371868;-14,03851435895871
11:56:00.643;0;Mov;1;12438;9,72;0;-3,454988298059023;-0,7656483657338176;-3,454988298059023;-0,35291604358043155;-0,7656483657338176;-1,6785180211798456;-17,48710592974639;-14,801477095858639
11:56:00.643;0;Mov;1;12439;9,72;0;-3,3736381115146337;-1,0252510862681967;-3,3736381115146337;-0,3732535902165288;-1,0252510862681967;-2,838221381267739;-17,05984679708243;-14,496292001098666
11:56:00.643;0;Mov;1;12440;9,72;0;-3,362871276741844;-0,6902798666531876;-3,362871276741844;-0,19739371929074984;-0,6902798666531876;-3,814813684499649;-8,636738181707205;-12,451551866206854
11:56:00.650;0;Wrist;1;58775;9,84;0;-4,7446273117770925;-0,579021600428785;-4,7446273117770925;0,31224098011146884;-0,579021600428785;-8,331553086947233;-20,355845820490128;6,317331461531419
11:56:00.650;0;Wrist;1;58776;9,84;0;-4,489810155796991;0;-4,489810155796991;0,21055330653744622;-0,3361674915406507;-11,017181920834986;-20,53895687734611;4,760887478255562
11:56:00.650;0;Wrist;1;58777;9,84;0;-4,6931855029450364;0;-4,6931855029450364;0,37684255500961333;-0,12681051653530992;-12,756736960966826;-18,89095736564226;2,7466658528397474
11:56:00.650;0;Wrist;1;58778;9,84;0;-4,57714173177282;0;-4,57714173177282;0,2548173646027253;-0,06220893046095347;-11,07821893978698;-15,10666219061861;2,5025177770317697
11:56:00.650;0;Wrist;1;58779;9,84;0;-4,368981177709281;0;-4,368981177709281;0,2871181371501816;-0,3708609271523179;-8,02636799218726;-10,65095980712302;3,326517532883694
11:56:00.709;0;Wrist;1;58780;9,95;0,5670583447141941;-4,546037171544541;0;-4,546037171544541;0,5670583447141941;-0,4928861473624378;-6,805627613147374;-6,19525742362743;2,2278511917477952
11:56:00.709;0;Wrist;1;58781;9,95;0,8158940516563921;-4,492202520828883;0;-4,492202520828883;0,8158940516563921;-0,36009400296983246;-4,913480025635548;-2,563554795983764;-0,3357036042359691
11:56:00.709;0;Wrist;1;58782;9,95;0,7417218543046358;-4,575945310831019;0;-4,575945310831019;0,7417218543046358;-0,3672719623592334;-2,5940733054597613;0,4272591326639607;-3,7842951750236518
11:56:00.709;0;Wrist;1;58783;9,95;0,5562913907284768;-4,812818060090946;0;-4,812818060090946;0,5562913907284768;-0,36009400296983246;-1,2207403790398876;1,586962492751854;-7,263405255287331
11:56:00.709;0;Wrist;1;58784;9,95;0,532364879299295;-5,159752475814082;0;-5,159752475814082;0,532364879299295;-0,3828241828669088;-0,640888698995941;1,3733329264198737;-8,758812219611194
11:56:00.732;0;Mov;1;12441;9,82;0;-3,6870756019775994;0;-3,6870756019775994;0,007177953801294938;-0,22371287888252664;-3,69273964659566;-15,076143681142613;-12,970366527298808
11:56:00.732;0;Mov;1;12442;9,82;0;-3,0936980231635487;-1,235804363002411;-3,0936980231635487;-0,16150395214697713;-1,235804363002411;-4,821924497207556;-30,4269539475692;-12,787255470442824
11:56:00.732;0;Mov;1;12443;9,82;0;-2,90348211424604;-1,2298227351451154;-2,90348211424604;-0,43665883358256785;-1,2298227351451154;-4,24207281716361;-17,456587420270395;-11,719107638782923
11:56:00.732;0;Mov;1;12444;9,82;0;-2,8951078829309975;-0,6998504593035676;-2,8951078829309975;-0,33257852674756616;-0,6998504593035676;-4,1810357982116155;-6,683553575243385;-10,101626636555071
11:56:00.732;0;Mov;1;12445;9,82;-0,6137150062372204;-2,7467636074404127;-0,6579790643024994;-2,7467636074404127;-0,6137150062372204;-0,6579790643024994;-3,845332193975646;-2,044740134891812;-6,653035065767388
11:56:00.734;0;Mov;1;12446;9,83;-0,8158940516563921;-3,245631323053682;-1,0372143419827875;-3,245631323053682;-0,8158940516563921;-1,0372143419827875;-3,204443494979705;3,814813684499649;-2,288888210699789
11:56:00.734;0;Mov;1;12447;9,83;-0,7321512616542558;-3,761247739722892;-0,8852809228797266;-3,761247739722892;-0,7321512616542558;-0,8852809228797266;-2,3194067201757864;8,880886257515183;1,586962492751854
11:56:00.734;0;Mov;1;12448;9,83;0;-3,5817989040040286;-0,8003418311487167;-3,5817989040040286;-0,29309976500747703;-0,8003418311487167;-2,563554795983764;4,7303689687795645;3,357036042359691
11:56:00.734;0;Mov;1;12449;9,83;0;-3,3030549981688893;-0,8063234590060121;-3,3030549981688893;-0,12322153684060945;-0,8063234590060121;-1,9531846064638203;2,4719992675557725;3,326517532883694
11:56:00.734;0;Mov;1;12450;9,83;0;-3,5961547631763664;-0,7321512616542558;-3,5961547631763664;-0,236872466129223;-0,7321512616542558;-0,7019257179479355;4,394665364543596;2,838221381267739
11:56:00.776;0;Wrist;1;58785;9,98;0;-4,886989959410382;0;-4,886989959410382;0,3014740559289834;-0,4223029446069979;-1,4648884548478653;0,18311105685598317;-7,72118289742729
11:56:00.776;0;Wrist;1;58786;9,98;0;-4,97192917035432;0;-4,97192917035432;0,4857081879730369;-0,3146336431756798;-3,021332438123722;-0,36622211371196634;-5,920590838343455
11:56:00.776;0;Wrist;1;58787;9,98;0,6699423200170904;-5,227942747276223;0;-5,227942747276223;0,6699423200170904;-0,33257852674756616;-3,9063692129276406;-0,8239997558519242;-4,547257911923582
11:56:00.776;0;Wrist;1;58788;9,98;0,6364452159375286;-5,2458876308481095;0;-5,2458876308481095;0,6364452159375286;-0,36009400296983246;-4,272591326639607;-2,2278511917477952;-3,6317026276436657
11:56:00.776;0;Wrist;1;58789;9,98;0,5120273326631978;-5,227942747276223;0;-5,227942747276223;0,5120273326631978;-0,415124985217597;-3,69273964659566;-3,173924985503708;-3,2654805139316996
11:56:00.792;0;Mov;1;12451;9,81;0;-3,6535784382915737;-0,7417218543046358;-3,6535784382915737;-0,40316172950300605;-0,7417218543046358;-0,640888698995941;3,47911008026368;2,410962248603778
11:56:00.792;0;Mov;1;12452;9,81;0;-3,4777183885464034;-0,818286714720603;-3,4777183885464034;-0,25720999786370435;-0,818286714720603;-1,586962492751854;2,3499252296517836;2,044740134891812
11:56:00.792;0;Mov;1;12453;9,81;0;-3,5853876899777215;-0,783593249305704;-3,5853876899777215;-0,21892758255733666;-0,783593249305704;-2,5940733054597613;4,303109836115604;1,9837031159398175
11:56:00.792;0;Mov;1;12454;9,81;0;-3,633240712836085;-0,6771203092097232;-3,633240712836085;-0,14954069643238624;-0,6771203092097232;-3,0823694570757163;3,7842951750236518;1,5564439832758568
11:56:00.792;0;Mov;1;12455;9,81;0;-3,5734244342631305;-0,5706473095072787;-3,5734244342631305;-0,03230079117447623;-0,5706473095072787;-3,47911008026368;3,326517532883694;0,7019257179479355
11:56:00.799;0;Wrist;1;58790;9,84;0;-5,157359633930479;0;-5,157359633930479;0,412732322153386;-0,2476394052133244;-3,1128879665517135;-3,7842951750236518;-2,4719992675557725
11:56:00.799;0;Wrist;1;58791;9,84;0;-4,892971587267678;0;-4,892971587267678;0,3947874385814997;-0,17107455969897306;-2,533036286507767;-3,9979247413556322;-0,9765923032319102
11:56:00.799;0;Wrist;1;58792;9,84;0;-4,64293963820307;0;-4,64293963820307;0,43665883358256785;-0,2560136663315989;-2,5025177770317697;-3,5401470992156745;-0,09155552842799158
11:56:00.800;0;Wrist;1;58793;9,84;0,7213843076685384;-4,994659260841701;0;-4,994659260841701;0,7213843076685384;-0,29190343347537157;-2,9908139286477247;-3,1128879665517135;-0,7019257179479355
11:56:00.800;0;Wrist;1;58794;9,84;0,6460158085879085;-5,160948419904172;0;-5,160948419904172;0,6460158085879085;-0,20696432684274574;-2,288888210699789;-3,814813684499649;-1,8921475875118259
11:56:00.882;0;Mov;1;12456;10,07;0;-3,313821832941679;-0,6747276461455123;-3,313821832941679;-0,16150395214697713;-0,6747276461455123;-3,47911008026368;2,288888210699789;0,3051850947599719
11:56:00.882;0;Mov;1;12457;10,07;0;-3,840205084383679;-0,8087161220702231;-3,840205084383679;-0,28113650929288614;-0,8087161220702231;-3,0823694570757163;4,364146855067599;0,030518509475997192
11:56:00.882;0;Mov;1;12458;10,07;0;-4,095022717215492;-0,6328562511444441;-4,095022717215492;-0,10168767357402264;-0,6328562511444441;-3,2349620044557024;3,204443494979705;-0,8239997558519242
11:56:00.882;0;Mov;1;12459;10,07;0;-3,77560359889523;-0,6974577962393567;-3,77560359889523;-0,0933133975541322;-0,6974577962393567;-3,814813684499649;-3,357036042359691;-2,2278511917477952
11:56:00.882;0;Mov;1;12460;10,07;0;-3,6619526696066163;-0,7142063780823694;-3,6619526696066163;-0,21055330653744622;-0,7142063780823694;-3,204443494979705;-5,706961272011475;-4,150517288735618
11:56:00.883;0;Mov;1;12461;9,94;0;-3,683486577578051;-0,7285622968611714;-3,683486577578051;-0,2823328408249916;-0,7285622968611714;-2,3499252296517836;-7,141331217383343;-5,523850215155492
11:56:00.883;0;Mov;1;12462;9,94;0;-3,722965369121372;-0,7907712384983367;-3,722965369121372;-0,3134373116435743;-0,7907712384983367;-2,075258644367809;-9,33866389965514;-6,317331461531419
11:56:00.883;0;Mov;1;12463;9,94;0;-3,816278572954497;-0,7285622968611714;-3,816278572954497;-0,34573808419103064;-0,7285622968611714;-1,8005920590838342;-11,017181920834986;-7,019257179479355
11:56:00.883;0;Mov;1;12464;9,94;0;-3,8055117381817074;-0,7417218543046358;-3,8055117381817074;-0,37564622347750787;-0,7417218543046358;-1,73955504013184;-13,824884792626728;-7,477034821619312
11:56:00.883;0;Mov;1;12465;9,94;0;-3,7540696909237954;-0,7548814713545641;-3,7540696909237954;-0,3900021422563097;-0,7548814713545641;-1,3122959074678793;-17,09036530655843;-7,904293954283273
11:56:00.890;0;Wrist;1;58795;10,08;0;-5,000640888698996;0;-5,000640888698996;0,4342662003215888;-0,12441786092190694;-1,4954069643238623;-3,9063692129276406;-1,586962492751854
11:56:00.891;0;Wrist;1;58796;10,08;0;-4,955180707724235;0;-4,955180707724235;0,4139286536854915;-0,11484726082071901;-0,7324442274239327;-3,4180730613116856;-0,9460737937559129
11:56:00.891;0;Wrist;1;58797;10,08;0;-4,994659260841701;0;-4,994659260841701;0,40435806103511157;-0,19739371929074984;0,27466658528397475;-3,5096285897396773;-0,5188146610919523
11:56:00.891;0;Wrist;1;58798;10,08;0;-5,18128614535966;0;-5,18128614535966;0,4378551651146733;-0,1914120914334544;1,0681478316599018;-3,936887722403638;0,45777764213995786
11:56:00.891;0;Wrist;1;58799;10,08;0;-5,144199957274087;0;-5,144199957274087;0,39957273490668965;-0,16509293184167761;2,0142216254158147;-4,303109836115604;2,075258644367809
11:56:00.919;0;Wrist;1;58800;9,48;0,5060457048059023;-5,07122400204474;0;-5,07122400204474;0,5060457048059023;-0,18543046357615894;3,1434064760277107;-4,699850459303567;3,7537766655476545
11:56:00.919;0;Wrist;1;58801;9,48;0,5443281350138859;-5,108310190130314;0;-5,108310190130314;0,5443281350138859;-0,13039949623001038;4,089480269783624;-5,462813196203498;4,486220892971588
11:56:00.919;0;Wrist;1;58802;9,48;0,5921811578722496;-5,271010563219092;0;-5,271010563219092;0,5921811578722496;0,02990813928647725;5,005035554063539;-5,951109347819452;5,066072573015534
11:56:00.919;0;Wrist;1;58803;9,48;0,5634693799211097;-5,241102423932615;0;-5,241102423932615;0,5634693799211097;-0,0011963255947428648;6,347849971007416;-6,073183385723441;6,134220404675435
11:56:00.919;0;Wrist;1;58804;9,48;0;-4,904934842982269;0;-4,904934842982269;0,3971801016457106;-0,17227089123107853;7,049775688955352;-6,40888698995941;7,599108859523301
11:56:00.953;0;Wrist;1;58805;9,6;0;-4,903738422040467;0;-4,903738422040467;0,48331555471205784;-0,11484726082071901;5,493331705679495;-6,317331461531419;10,071108127079073
11:56:00.953;0;Wrist;1;58806;9,6;0,6902798666531876;-5,19205298013245;0;-5,19205298013245;0,6902798666531876;0,06579790643024995;3,8758507034516434;-6,317331461531419;11,383404034546952
11:56:00.953;0;Wrist;1;58807;9,6;0,6795129126674703;-5,230335589159825;0;-5,230335589159825;0,6795129126674703;0,10527665326872311;4,303109836115604;-7,293923764763329;12,451551866206854
11:56:00.953;0;Wrist;1;58808;9,6;0,9151890621662038;-5,15855605487228;0;-5,15855605487228;0,9151890621662038;0,05144199882766007;5,493331705679495;-7,629627368999298;13,91644032105472
11:56:00.953;0;Wrist;1;58809;9,6;0,9678274111529893;-4,939628189184241;0;-4,939628189184241;0,9678274111529893;-0,1818414838814585;7,049775688955352;-8,728293710135198;14,618366039002655
11:56:00.972;0;Mov;1;12466;9,69;0;-3,6583636452070682;-0,7405255525757622;-3,6583636452070682;-0,417517618478576;-0,7405255525757622;-0,9765923032319102;-19,98962370677816;-8,178960539567248
11:56:00.972;0;Mov;1;12467;9,69;0;-3,3425337897122103;-0,8481948540070803;-3,3425337897122103;-0,40316172950300605;-0,8481948540070803;-0,3967406231879635;-22,49214148380993;-8,178960539567248
11:56:00.972;0;Mov;1;12468;9,69;0;-3,29826955282754;-0,820679377784814;-3,29826955282754;-0,39119847378841516;-0,820679377784814;0,18311105685598317;-22,27851191747795;-7,019257179479355
11:56:00.972;0;Mov;1;12469;9,69;0;-3,3999572264015625;-0,6484084716521195;-3,3999572264015625;-0,2560136663315989;-0,6484084716521195;0,6714072084719382;-21,759697256385998;-6,225775933103427
11:56:00.972;0;Mov;1;12470;9,69;0;-3,5865841109195227;-0,5132236939985351;-3,5865841109195227;-0,32779320061914424;-0,5132236939985351;0,8545182653279214;-22,583697012237923;-5,7374797814874725
11:56:01.001;0;Mov;1;12471;9,79;-0,588592193079165;-3,8485795541245764;0;-3,8485795541245764;-0,588592193079165;-0,4964751121555223;0;-23,987548448133793;-5,4322946867275
11:56:01.001;0;Mov;1;12472;9,79;-0,579021600428785;-3,4884854617450483;-0,6424268437948241;-3,4884854617450483;-0,579021600428785;-0,6424268437948241;-1,1291848506118962;-27,80236213263344;-5,3102206488235115
11:56:01.001;0;Mov;1;12473;9,79;0;-3,3497116000854517;-0,5287759145062105;-3,3497116000854517;-0,4964751121555223;-0,5287759145062105;-0,9765923032319102;-27,558214056825463;-4,8829615161595505
11:56:01.001;0;Mov;1;12474;9,79;0;-3,175048209707938;-0,5503097628711814;-3,175048209707938;-0,4342662003215888;-0,5503097628711814;-0,5798516800439466;-27,436140018921474;-4,058961760307627
11:56:01.001;0;Mov;1;12475;9,79;0;-3,017133043534654;-0,5778252390934476;-3,017133043534654;-0,35291604358043155;-0,5778252390934476;-0,15259254737998595;-24,597918637653738;-2,685628833887753
11:56:01.026;0;Wrist;1;58810;9,87;0,6304635880802332;-4,57714173177282;0;-4,57714173177282;0,6304635880802332;-0,473744932258446;7,446516312143315;-10,52888576921903;14,526810510574663
11:56:01.026;0;Wrist;1;58811;9,87;0,6986541575746941;-4,090237033448286;-0,598162785729545;-4,090237033448286;0,6986541575746941;-0,598162785729545;4,913480025635548;-11,352885525070956;12,93984801782281
11:56:01.027;0;Wrist;1;58812;9,87;0,6902798666531876;-4,130912484359264;-0,6244819602229377;-4,130912484359264;0,6902798666531876;-0,6244819602229377;4,4557023834955904;-9,430219428083133;9,582811975463118
11:56:01.027;0;Wrist;1;58813;9,87;0,5838068669507431;-4,270882290108951;0;-4,270882290108951;0,5838068669507431;-0,43187353725737787;5,127109591967528;-7,599108859523301;6,805627613147374
11:56:01.027;0;Wrist;1;58814;9,87;0,6639606921597949;-4,681222247230445;0;-4,681222247230445;0,6639606921597949;-0,3098483170472579;5,798516800439467;-5,066072573015534;5,066072573015534
11:56:01.055;0;Mov;1;12476;9,99;0;-3,073360536133915;-0,6412305420659505;-3,073360536133915;-0,2464430736812189;-0,6412305420659505;0,640888698995941;-20,29480880153813;-1,4343699453718681
11:56:01.055;0;Mov;1;12477;9,99;0;-3,521982625431074;-0,5036531013481551;-3,521982625431074;-0,32779320061914424;-0,5036531013481551;0,9155552842799157;-16,266365550706503;-0,45777764213995786
11:56:01.055;0;Mov;1;12478;9,99;0;-3,856953785439619;0;-3,856953785439619;-0,4007690664387951;-0,47135229899746695;-0,6714072084719382;-16,17481002227851;-0,5798516800439466
11:56:01.055;0;Mov;1;12479;9,99;0;-3,533945881145665;-0,5706473095072787;-3,533945881145665;-0,17107455969897306;-0,5706473095072787;-2,6245918149357585;-19,623401593066195;-1,7700735496078372
11:56:01.055;0;Mov;1;12480;9,99;0;-2,872377792443617;-0,5658619833788567;-2,872377792443617;0,20337534714804528;-0,5658619833788567;-2,9297769096957307;-20,75258644367809;-2,533036286507767
11:56:01.069;0;Wrist;1;58815;9,92;0,5742362743003632;-4,715915593432417;0;-4,715915593432417;0,5742362743003632;-0,3134373116435743;6,805627613147374;-4,974517044587542;4,7303689687795645
11:56:01.069;0;Wrist;1;58816;9,92;0;-4,69797070986053;0;-4,69797070986053;0,4498184208292642;-0,29549242807168796;7,843256935331278;-5,4322946867275;4,852443006683553
11:56:01.069;0;Wrist;1;58817;9,92;0;-4,666866149632252;0;-4,666866149632252;0,34813074725524157;-0,26917325357829525;8,056886501663259;-5,7374797814874725;5,371257667775506
11:56:01.069;0;Wrist;1;58818;9,92;0;-4,451527546769616;0;-4,451527546769616;0,37923521807382427;-0,236872466129223;8,57570116275521;-5,7374797814874725;5,554368724631489
11:56:01.069;0;Wrist;1;58819;9,92;0;-4,601068243202002;0;-4,601068243202002;0,44024782817888425;-0,3170262764366588;7,93481246375927;-4,8829615161595505;5,340739158299509
11:56:01.092;0;Mov;1;12481;9,95;0;-2,6486649582659383;-0,6400341807306131;-2,6486649582659383;0,11604358490201651;-0,6400341807306131;-1,6174810022278512;-16,602069154942473;-2,1057771538438064
11:56:01.092;0;Mov;1;12482;9,95;0;-3,2085451349681082;-0,5395428684919279;-3,2085451349681082;-0,11365092928861355;-0,5395428684919279;-0,3357036042359691;-10,254219183935056;-0,9765923032319102
11:56:01.092;0;Mov;1;12483;9,95;0;-3,567442806405835;0;-3,567442806405835;-0,19260842296555986;-0,47254860072634053;-0,12207403790398877;-8,819849238563188;-0,7629627368999298
11:56:01.092;0;Mov;1;12484;9,95;0;-3,481307412945952;0;-3,481307412945952;-0,10527665326872311;-0,4581927117507706;-0,6714072084719382;-10,376293221839045;-1,3428144169438765
11:56:01.092;0;Mov;1;12485;9,95;0;-3,4681479747154147;0;-3,4681479747154147;-0,17107455969897306;-0,4091433573603015;-1,0071108127079074;-10,98666341135899;-1,8921475875118259
11:56:01.099;0;Wrist;1;58820;9,94;0;-4,4455459189123205;0;-4,4455459189123205;0,46297800807596057;-0,468959635933256;6,073183385723441;-3,936887722403638;5,279702139347514
11:56:01.099;0;Wrist;1;58821;9,94;0,654390099509415;-4,463490802484206;0;-4,463490802484206;0,654390099509415;-0,3337748284764397;4,211554307687613;-2,8687398907437363;4,638813440351573
11:56:01.099;0;Wrist;1;58822;9,94;0,6603717273667105;-4,604657029175695;0;-4,604657029175695;0,6603717273667105;-0,33257852674756616;3,2349620044557024;-2,380443739127781;3,845332193975646
11:56:01.099;0;Wrist;1;58823;9,94;0,8063234590060121;-4,290023594622639;0;-4,290023594622639;0,8063234590060121;-0,468959635933256;1,9531846064638203;-2,3194067201757864;3,204443494979705
11:56:01.100;0;Wrist;1;58824;9,94;0,9534714923741875;-4,378551591540269;0;-4,378551591540269;0,9534714923741875;-0,3014740559289834;1,0376293221839046;-0,9460737937559129;1,4343699453718681
11:56:01.160;0;Wrist;1;58825;9,95;1,043195969840083;-4,836744571520127;0;-4,836744571520127;1,043195969840083;-0,2129459547000412;0,24414807580797754;-0,8239997558519242;-0,5188146610919523
11:56:01.160;0;Wrist;1;58826;9,95;0,6101260414441358;-4,834351729636524;0;-4,834351729636524;0,6101260414441358;-0,08972441785943175;-0,8545182653279214;-2,7771843623157446;-0,9765923032319102
11:56:01.160;0;Wrist;1;58827;9,95;0,5311685775704215;-4,778124237037263;0;-4,778124237037263;0,5311685775704215;-0,028711815205179753;-0,18311105685598317;-2,3499252296517836;-0,09155552842799158
11:56:01.160;0;Wrist;1;58828;9,95;0,5359538440923796;-4,470668851283303;0;-4,470668851283303;0,5359538440923796;-0,1531296761270867;0,45777764213995786;-1,3428144169438765;0,7324442274239327
11:56:01.160;0;Wrist;1;58829;9,95;0,6759239478743858;-4,585516201513718;0;-4,585516201513718;0,6759239478743858;-0,21414228623214668;0,9460737937559129;-0,5798516800439466;0,640888698995941
11:56:01.182;0;Mov;1;12486;10,08;0;-3,4095278786584062;0;-3,4095278786584062;-0,3098483170472579;-0,43665883358256785;-1,403851435895871;-11,566515091402936;-2,2583697012237924
11:56:01.182;0;Mov;1;12487;10,08;0;-3,0805383465071565;-0,579021600428785;-3,0805383465071565;-0,3553087066446425;-0,579021600428785;-1,5564439832758568;-11,474959562974945;-2,2278511917477952
11:56:01.182;0;Mov;1;12488;10,08;-0,527579612777337;-2,9357830954161197;-0,651997436445204;-2,9357830954161197;-0,527579612777337;-0,651997436445204;-1,1597033600878932;-8,57570116275521;-1,1902218695638904
11:56:01.182;0;Mov;1;12489;10,08;-0,5838068669507431;-3,2264900185399945;-0,6316598898091067;-3,2264900185399945;-0,5838068669507431;-0,6316598898091067;-0,21362956633198035;-3,936887722403638;0,09155552842799158
11:56:01.183;0;Mov;1;12490;10,08;-0,5239905883777887;-3,6487929929502245;0;-3,6487929929502245;-0,5239905883777887;-0,42110661307489244;0,45777764213995786;-1,7700735496078372;0,8545182653279214
11:56:01.190;0;Wrist;1;58830;9,84;0,8039307959418012;-4,8989532151249735;0;-4,8989532151249735;0,8039307959418012;-0,16389660030957212;0,9765923032319102;-0,9155552842799157;0,5188146610919523
11:56:01.190;0;Wrist;1;58831;9,84;0,7393291912404248;-4,876223124637593;0;-4,876223124637593;0,7393291912404248;-0,027515489261180266;1,0071108127079074;-2,0142216254158147;1,0376293221839046
11:56:01.190;0;Wrist;1;58832;9,84;0,6687460182882168;-4,753001781517991;0;-4,753001781517991;0,6687460182882168;-0,08254646592083881;1,2512588885158848;-1,9531846064638203;1,4954069643238623
11:56:01.190;0;Wrist;1;58833;9,84;0,6137150062372204;-4,733860477004303;0;-4,733860477004303;0,6137150062372204;-0,07297585836884289;1,586962492751854;-1,403851435895871;1,6785180211798456
11:56:01.190;0;Wrist;1;58834;9,84;0,6603717273667105;-4,725486007263405;0;-4,725486007263405;0,6603717273667105;-0,14475540010719626;2,2278511917477952;-1,3733329264198737;2,1057771538438064
11:56:01.216;0;Mov;1;12491;10,1;0;-3,398761043885617;0;-3,398761043885617;-0,2990813928647725;-0,45580004868655966;0,27466658528397475;-4,0284432508316295;0,9765923032319102
11:56:01.216;0;Mov;1;12492;10,1;0;-3,096090626621296;-0,522794286648915;-3,096090626621296;-0,23328348643452254;-0,522794286648915;0,18311105685598317;-4,66933194982757;0,9460737937559129
11:56:01.216;0;Mov;1;12493;10,1;0;-3,3939755985442672;0;-3,3939755985442672;-0,36487929929502244;-0,4569963802186651;0,3967406231879635;-2,380443739127781;0,9460737937559129
11:56:01.216;0;Mov;1;12494;10,1;0;-3,6523820173497725;0;-3,6523820173497725;-0,4498184208292642;-0,3170262764366588;0,24414807580797754;-2,288888210699789;1,098666341135899
11:56:01.216;0;Mov;1;12495;10,1;0;-3,4454176458021792;0;-3,4454176458021792;-0,2859218056180761;-0,4007690664387951;-0,5188146610919523;-4,24207281716361;1,2512588885158848
11:56:01.241;0;Mov;1;12496;9,96;0;-3,475325785088656;0;-3,475325785088656;-0,13757744071779535;-0,23328348643452254;-1,4343699453718681;-4,150517288735618;1,0071108127079074
11:56:01.242;0;Mov;1;12497;9,96;0;-3,572228251747185;0;-3,572228251747185;-0,1531296761270867;-0,2596026609279153;-2,6551103244117558;-4,638813440351573;0,5188146610919523
11:56:01.242;0;Mov;1;12498;9,96;0;-3,405938854258858;0;-3,405938854258858;-0,16987822816686757;-0,41153599062128055;-3,021332438123722;-6,653035065767388;-0,09155552842799158
11:56:01.242;0;Mov;1;12499;9,96;0;-3,2803246692556534;-0,5132236939985351;-3,2803246692556534;-0,2560136663315989;-0,5132236939985351;-3,1434064760277107;-7,263405255287331;-0,7019257179479355
11:56:01.242;0;Mov;1;12500;9,96;0;-3,0075626297036653;-0,6244819602229377;-3,0075626297036653;-0,33975645633373514;-0,6244819602229377;-2,9297769096957307;-7,324442274239326;-0,9155552842799157
11:56:01.250;0;Wrist;1;58835;9,83;0,7058320871608631;-4,694381447035127;0;-4,694381447035127;0,7058320871608631;-0,06579790643024995;2,838221381267739;-2,2278511917477952;2,4414807580797753
11:56:01.250;0;Wrist;1;58836;9,83;0,7189917042107914;-4,615424340800195;0;-4,615424340800195;0,7189917042107914;-0,13039949623001038;3,9979247413556322;-2,9297769096957307;2,3194067201757864
11:56:01.250;0;Wrist;1;58837;9,83;0,5826105652218696;-4,66447330774865;0;-4,66447330774865;0,5826105652218696;-0,21892758255733666;5,645924253059481;-4,24207281716361;2,2278511917477952
11:56:01.250;0;Wrist;1;58838;9,83;0,5383465071565905;-4,485024472029786;0;-4,485024472029786;0,5383465071565905;-0,2560136663315989;5,951109347819452;-5,096591082491531;2,9602954191717274
11:56:01.250;0;Wrist;1;58839;9,83;0,7345439247184667;-4,439564291055025;0;-4,439564291055025;0,7345439247184667;-0,13279214439260537;6,134220404675435;-4,66933194982757;2,807702871791742
11:56:01.306;0;Mov;1;12501;9,98;0;-2,922623418759728;-0,6424268437948241;-2,922623418759728;-0,33975645633373514;-0,6424268437948241;-2,4719992675557725;-5,371257667775506;-0,6103701895199438
11:56:01.306;0;Mov;1;12502;9,98;0;-3,348515417569506;0;-3,348515417569506;-0,3062593522541734;-0,29309976500747703;-2,2583697012237924;-1,8311105685598315;0,061037018951994385
11:56:01.306;0;Mov;1;12503;9,98;0;-3,8437941087832272;0;-3,8437941087832272;-0,2548173646027253;-0,03349711525577372;-3,1434064760277107;-1,3428144169438765;0,36622211371196634
11:56:01.306;0;Mov;1;12504;9,98;0;-3,750480666524247;0;-3,750480666524247;0,020337535459885328;-0,10288399765532014;-4,791405987731559;-5,584887234107486;0,12207403790398877
11:56:01.306;0;Mov;1;12505;9,98;0;-3,257594578768273;0;-3,257594578768273;-0,025122837373181287;-0,48211922317995237;-5,279702139347514;-10,711996826075014;-0,9765923032319102
11:56:01.311;0;Wrist;1;58840;9,96;0,7142063780823694;-4,711130386516922;0;-4,711130386516922;0,7142063780823694;-0,0478530228583636;7,507553331095309;-2,71614734336375;1,7090365306558428
11:56:01.311;0;Wrist;1;58841;9,96;0,6842982387958922;-4,523307081057161;0;-4,523307081057161;0,6842982387958922;-0,19978636745334483;8,178960539567248;-2,7466658528397474;1,403851435895871
11:56:01.311;0;Wrist;1;58842;9,96;0,7823969475768303;-4,684811033204138;0;-4,684811033204138;0,7823969475768303;0,21414228623214668;9,735404522843105;-3,0823694570757163;2,0142216254158147
11:56:01.311;0;Wrist;1;58843;9,96;0,5778252390934476;-5,0054260956144905;0;-5,0054260956144905;0,5778252390934476;0,2775475444998016;14,77095858638264;-4,364146855067599;2,807702871791742
11:56:01.311;0;Wrist;1;58844;9,96;0,6484084716521195;-4,747020153660695;0;-4,747020153660695;0,6484084716521195;-0,0239265114291818;18,280587176122317;-9,33866389965514;4,0284432508316295
11:56:01.332;0;Mov;1;12506;9,96;0;-3,283913693655202;0;-3,283913693655202;-0,27635121296769616;-0,45221108389347514;-4,913480025635548;-10,101626636555071;-1,8005920590838342
11:56:01.332;0;Mov;1;12507;9,96;0;-3,2922879249702444;0;-3,2922879249702444;-0,29549242807168796;-0,4091433573603015;-5,066072573015534;-10,315256202887051;-1,9837031159398175
11:56:01.332;0;Mov;1;12508;9,96;0;-3,403546250801111;0;-3,403546250801111;-0,2895108002143925;-0,3361674915406507;-5,4322946867275;-10,803552354503006;-2,044740134891812
11:56:01.332;0;Mov;1;12509;9,96;0;-3,382012342829676;0;-3,382012342829676;-0,17825251908837397;-0,26558428878521073;-5,76799829096347;-11,07821893978698;-2,4719992675557725
11:56:01.333;0;Mov;1;12510;9,96;0;-3,243238719595935;0;-3,243238719595935;-0,40435806103511157;-0,39837643317781607;-5,554368724631489;-12,421033356730858;-2,6551103244117558
11:56:01.340;0;Wrist;1;58845;9,84;0,7991454698133793;-4,575945310831019;0;-4,575945310831019;0,7991454698133793;-0,16270028367908262;19,318216498306224;-12,17688528092288;5,127109591967528
11:56:01.340;0;Wrist;1;58846;9,84;0,7142063780823694;-4,786498706778161;0;-4,786498706778161;0,7142063780823694;0,32061527103297527;18,89095736564226;-14,160588396862698;4,974517044587542
11:56:01.340;0;Wrist;1;58847;9,84;0;-4,9061312639240695;0;-4,9061312639240695;0,48690451950514235;0,17227089123107853;17,60917996765038;-18,524735251930295;5,127109591967528
11:56:01.340;0;Wrist;1;58848;9,84;0;-4,340269459364604;0;-4,340269459364604;0,46417433960806603;-0,3553087066446425;15,10666219061861;-23,25510422070986;5,951109347819452
11:56:01.340;0;Wrist;1;58849;9,84;0;-3,963426665929136;-0,7154026798112431;-3,963426665929136;0,38760947919209876;-0,7154026798112431;13,48918118839076;-21,33243812372204;6,0121463667714465
11:56:01.392;0;Mov;1;12511;9,96;-0,588592193079165;-3,0877163953062534;-0,6400341807306131;-3,0877163953062534;-0,588592193079165;-0,6400341807306131;-4,66933194982757;-13,000885036774804;-2,2583697012237924
11:56:01.392;0;Mov;1;12512;9,96;-0,5060457048059023;-3,0649860663930175;-0,6364452159375286;-3,0649860663930175;-0,5060457048059023;-0,6364452159375286;-3,662221137119663;-11,07821893978698;-1,8005920590838342
11:56:01.392;0;Mov;1;12513;9,96;0;-3,134372997222816;0;-3,134372997222816;-0,41632131674970246;-0,4773339268547624;-2,7466658528397474;-8,57570116275521;-1,7090365306558428
11:56:01.392;0;Mov;1;12514;9,96;0;-3,1427472285378584;0;-3,1427472285378584;-0,3313821952154607;-0,4270882409321879;-2,5025177770317697;-7,690664387951292;-1,7090365306558428
11:56:01.392;0;Mov;1;12515;9,96;0;-3,0410595549638355;0;-3,0410595549638355;-0,468959635933256;-0,4223029446069979;-1,8311105685598315;-7,110812707907346;-1,5564439832758568
11:56:01.400;0;Wrist;1;58850;9,96;0,5850032282860805;-3,9718008972441785;-0,7656483657338176;-3,9718008972441785;0,5850032282860805;-0,7656483657338176;10,895107882930997;-16,388439588610492;5,096591082491531
11:56:01.400;0;Wrist;1;58851;9,96;0,7165990411465804;-4,096218661305582;-0,5622730185857723;-4,096218661305582;0,7165990411465804;-0,5622730185857723;8,056886501663259;-11,444441053498947;3,9063692129276406
11:56:01.400;0;Wrist;1;58852;9,96;0,5395428684919279;-4,144071684163945;0;-4,144071684163945;0,5395428684919279;-0,37205725868442335;5,981627857295449;-8,728293710135198;2,9602954191717274
11:56:01.400;0;Wrist;1;58853;9,96;0,5873958913502915;-4,251740985595264;0;-4,251740985595264;0,5873958913502915;-0,46776330440115055;5,096591082491531;-6,103701895199438;2,4719992675557725
11:56:01.400;0;Wrist;1;58854;9,96;0,8757103302293466;-4,359410287026582;0;-4,359410287026582;0,8757103302293466;-0,3218115727618488;2,9602954191717274;-4,211554307687613;2,1362956633198036
11:56:01.453;0;Mov;1;12516;9,97;-0,6232856584940641;-3,2910917424542987;0;-3,2910917424542987;-0,6232856584940641;-0,42828457246429336;-1,0681478316599018;-6,164738914151433;-0,7629627368999298
11:56:01.453;0;Mov;1;12517;9,97;-0,532364879299295;-3,42986536568804;0;-3,42986536568804;-0,532364879299295;-0,2703695851104007;0,030518509475997192;-4,974517044587542;0,24414807580797754
11:56:01.453;0;Mov;1;12518;9,97;-0,5670583447141941;-3,191796672338023;-0,5084383678701132;-3,191796672338023;-0,5670583447141941;-0,5084383678701132;0,9765923032319102;-8,087405011139255;0,7019257179479355
11:56:01.453;0;Mov;1;12519;9,97;-0,527579612777337;-2,992010349589526;-0,6878872035889767;-2,992010349589526;-0,527579612777337;-0,6878872035889767;2,807702871791742;-10,22370067445906;0,9155552842799157
11:56:01.453;0;Mov;1;12520;9,97;0;-2,982439697332682;-0,532364879299295;-2,982439697332682;-0,3708609271523179;-0,532364879299295;4,516739402447585;-7,843256935331278;1,1597033600878932
11:56:01.465;0;Wrist;1;58855;9,98;0,8362315982924894;-4,4730612163151955;0;-4,4730612163151955;0,8362315982924894;-0,21773125102523117;1,8005920590838342;-3,5401470992156745;1,7700735496078372
11:56:01.465;0;Wrist;1;58856;9,98;0,9391155735953856;-4,311557264168218;0;-4,311557264168218;0,9391155735953856;-0,48211922317995237;0,15259254737998595;-3,69273964659566;1,281777397991882
11:56:01.465;0;Wrist;1;58857;9,98;0,6998504593035676;-4,197906334879605;0;-4,197906334879605;0,6998504593035676;-0,4665669728690451;-2,166814172795801;-2,1057771538438064;0,793481246375927
11:56:01.465;0;Wrist;1;58858;9,98;0,6196966340945158;-4,372569963682974;0;-4,372569963682974;0,6196966340945158;-0,12322153684060945;-3,5401470992156745;-0,061037018951994385;0,24414807580797754
11:56:01.465;0;Wrist;1;58859;9,98;0,6962614945104831;-4,300790429395429;0;-4,300790429395429;0,6962614945104831;0,01674855762788686;-2,7466658528397474;0;-0,640888698995941
11:56:01.483;0;Mov;1;12521;9,96;0;-3,098483230079043;0;-3,098483230079043;-0,3289895321512497;-0,33736382307275614;5,1576281014435255;-5,920590838343455;1,4343699453718681
11:56:01.483;0;Mov;1;12522;9,96;0;-3,358085831400494;0;-3,358085831400494;-0,2942960965395825;-0,16270028367908262;4,211554307687613;-5,249183629871517;1,8005920590838342
11:56:01.483;0;Mov;1;12523;9,96;0;-3,3389447653126623;0;-3,3389447653126623;-0,23208716980403302;-0,28831446868228705;3,0823694570757163;-6,134220404675435;1,9531846064638203
11:56:01.483;0;Mov;1;12524;9,96;0;-3,1439436494796595;0;-3,1439436494796595;-0,20816065837485123;-0,3780388865417188;2,533036286507767;-6,591998046815394;1,6479995117038484
11:56:01.483;0;Mov;1;12525;9,96;0;-2,898696907330546;-0,5538987276642658;-2,898696907330546;-0,20696432684274574;-0,5538987276642658;2,166814172795801;-6,19525742362743;1,1902218695638904
11:56:01.501;0;Wrist;1;58860;9,89;0,6304635880802332;-4,4527239677114165;0;-4,4527239677114165;0,6304635880802332;-0,03947874311306917;-0,5798516800439466;0,45777764213995786;-1,3428144169438765
11:56:01.501;0;Wrist;1;58861;9,89;0,7165990411465804;-4,432386242255928;0;-4,432386242255928;0,7165990411465804;-0,16270028367908262;-1,5564439832758568;0,21362956633198035;-1,1291848506118962
11:56:01.501;0;Wrist;1;58862;9,89;0,7022431223677785;-4,275667497024445;0;-4,275667497024445;0,7022431223677785;-0,297885061332667;-2,838221381267739;-0,030518509475997192;-0,9765923032319102
11:56:01.501;0;Wrist;1;58863;9,89;0,7620594009407331;-4,039991645558031;0;-4,039991645558031;0,7620594009407331;-0,48929718256935334;-4,394665364543596;1,1902218695638904;-1,4954069643238623
11:56:01.501;0;Wrist;1;58864;9,89;0,7381328895115512;-3,9287333197271646;-0,5192053218558306;-3,9287333197271646;0,7381328895115512;-0,5192053218558306;-5,981627857295449;3,7842951750236518;-2,9908139286477247
11:56:01.541;0;Mov;1;12526;9,96;0;-2,9740654660176395;-0,5527024259353923;-2,9740654660176395;-0,29190343347537157;-0,5527024259353923;2,2278511917477952;-3,2654805139316996;1,281777397991882
11:56:01.541;0;Mov;1;12527;9,96;0;-3,1415510460219123;0;-3,1415510460219123;-0,2524247015385144;-0,48331555471205784;2,410962248603778;-0,36622211371196634;1,4343699453718681
11:56:01.541;0;Mov;1;12528;9,96;0;-3,1475326738792075;0;-3,1475326738792075;-0,2548173646027253;-0,36487929929502244;2,5940733054597613;0,6103701895199438;1,4648884548478653
11:56:01.542;0;Mov;1;12529;9,96;0;-3,152317880794702;0;-3,152317880794702;-0,26199529418889433;-0,34454178246215705;2,685628833887753;0,7629627368999298;1,2207403790398876
11:56:01.542;0;Mov;1;12530;9,96;0;-3,072164115192114;0;-3,072164115192114;-0,42110661307489244;-0,4581927117507706;3,326517532883694;0,793481246375927;1,0071108127079074
11:56:01.550;0;Wrist;1;58865;9,96;0,5060457048059023;-4,184747135074923;0;-4,184747135074923;0,5060457048059023;-0,29190343347537157;-6,134220404675435;7,080294198431349;-4,943998535111545
11:56:01.550;0;Wrist;1;58866;9,96;0,5491134611423079;-4,361803128910184;0;-4,361803128910184;0,5491134611423079;-0,12322153684060945;-6,714072084719382;8,636738181707205;-5,4322946867275
11:56:01.550;0;Wrist;1;58867;9,96;0;-4,382140854365673;0;-4,382140854365673;0,3935911070493942;-0,08254646592083881;-6,4394054994354075;8,57570116275521;-5,340739158299509
11:56:01.550;0;Wrist;1;58868;9,96;0;-4,496987727744377;0;-4,496987727744377;0,34095278786584066;-0,09929502541142765;-5,401776177251503;8,056886501663259;-4,7303689687795645
11:56:01.550;0;Wrist;1;58869;9,96;0;-4,475454058198798;0;-4,475454058198798;0,48690451950514235;-0,17107455969897306;-5,859553819391461;6,805627613147374;-3,5706656086916717
11:56:01.572;0;Mov;1;12531;9,84;-0,5766289373645741;-3,061397280419324;-0,5072420661412397;-3,061397280419324;-0,5766289373645741;-0,5072420661412397;4,272591326639607;1,403851435895871;1,403851435895871
11:56:01.572;0;Mov;1;12532;9,84;-0,5634693799211097;-3,1427472285378584;0;-3,1427472285378584;-0,5634693799211097;-0,49168981583033233;5,340739158299509;2,1362956633198036;2,380443739127781
11:56:01.572;0;Mov;1;12533;9,84;0;-3,268361413541063;0;-3,268361413541063;-0,35770133990562153;-0,30027772439687794;6,0121463667714465;2,7466658528397474;3,295999023407697
