Frecuencia (Hz);100
time;timespan;canal;id;sample;gap;accX;accY;accZ;rawAccX;rawAccY;rawAccZ;rawGirX;rawGirY;rawGirZ
12:09:15.246;0;Mov;1;13296;12,77;5,196838187047945;-24,723263878292183;-2,7156590472121342;-24,723263878292183;5,196838187047945;-2,7156590472121342;36,774803918576616;-19,98962370677816;-93,72234260078737
12:09:15.247;0;Mov;1;13297;12,77;12,393932920316171;-24,46485793633839;-11,698868144779809;-24,46485793633839;12,393932920316171;-11,698868144779809;60,8233893856624;-32,07495345927305;-63,47849971007416
12:09:15.247;0;Mov;1;13298;12,77;16,26763588366344;-24,38829271828364;-20,804101687673572;-24,38829271828364;16,26763588366344;-20,804101687673572;38,48384044923246;-14,03851435895871;-4,577776421399578
12:09:15.247;0;Mov;1;13299;12,77;15,56419568468276;-25,128818628498184;-25,700663014618367;-25,128818628498184;15,56419568468276;-25,700663014618367;-34,516434217352824;20,386364329966124;60,579241309854424
12:09:15.247;0;Mov;1;13300;12,77;10,073061311685537;-26,4316175572985;-22,062637333292642;-26,4316175572985;10,073061311685537;-22,062637333292642;-124,79018524735253;37,11050752281258;109,6835230567339
12:09:15.250;0;Wrist;1;59610;16,31;-1,2633197796182134;0,6914761683820613;0,7465071804330576;0,6914761683820613;-1,2633197796182134;0,7465071804330576;6,347849971007416;30,549027985473188;-6,653035065767388
12:09:15.250;0;Wrist;1;59611;16,31;-1,3638111514633626;0,900833143387402;0;0,900833143387402;-1,3638111514633626;0,47972656011574144;7,72118289742729;32,50221259193701;-6,042664876247444
12:09:15.250;0;Wrist;1;59612;16,31;-1,3781671298486282;0,8601581097216712;0;0,8601581097216712;-1,3781671298486282;0,4426404614398633;9,308145390179144;34,058656575212865;-5,4322946867275
12:09:15.250;0;Wrist;1;59613;16,31;-1,2370006647312846;0,5096347292054506;0,525186949713126;0,5096347292054506;-1,2370006647312846;0,525186949713126;9,826960051271096;32,07495345927305;-5,005035554063539
12:09:15.250;0;Wrist;1;59614;16,31;-1,1484725486007263;0,6902798666531876;0;0,6902798666531876;-1,1484725486007263;0,2249092104146321;10,681478316599017;30,030213324381236;-3,845332193975646
12:09:15.253;0;Wrist;1;59615;14,3;-1,0360179210409863;0,6436231455236976;0;0,6436231455236976;-1,0360179210409863;0,3947874385814997;9,094515823847164;27,405621509445478;-3,021332438123722
12:09:15.253;0;Wrist;1;59616;14,3;-1,0252510862681967;0,5180089605204932;0;0,5180089605204932;-1,0252510862681967;0,07656483806354335;8,850367748039186;26,367992187261574;-3,2654805139316996
12:09:15.253;0;Wrist;1;59617;14,3;-0,9809869685964537;0,5096347292054506;0;0,5096347292054506;-0,9809869685964537;0,29190343347537157;7,93481246375927;24,262215033417768;-3,051850947599719
12:09:15.253;0;Wrist;1;59618;14,3;-1,0049134800256356;0,6771203092097232;0;0,6771203092097232;-1,0049134800256356;0;6,0121463667714465;19,684438612018187;-2,71614734336375
12:09:15.253;0;Wrist;1;59619;14,3;-0,9666311094241157;0;0;0,39837643317781607;-0,9666311094241157;0,17227089123107853;3,3875545518356884;15,594958342234566;-2,9908139286477247
12:09:15.254;0;Wrist;1;59620;12,74;-0,9666311094241157;0,5574877520638142;0;0,5574877520638142;-0,9666311094241157;0,26438795725310527;0,5493331705679495;11,505478072450941;-3,1128879665517135
12:09:15.254;0;Wrist;1;59621;12,74;-0,8565691449285867;0,769237330526902;0,6591754256378368;0,769237330526902;-0,8565691449285867;0,6591754256378368;-1,1597033600878932;9,24710837122715;-3,936887722403638
12:09:15.254;0;Wrist;1;59622;12,74;-1,001324574839015;0,5503097628711814;0,8422132261497849;0,5503097628711814;-1,001324574839015;0,8422132261497849;-1,2512588885158848;10,162663655507066;-5,554368724631489
12:09:15.254;0;Wrist;1;59623;12,74;-0,766844727069155;0,5921811578722496;0;0,5921811578722496;-0,766844727069155;0,4199102815427869;-0,9460737937559129;11,444441053498947;-6,775109103671377
12:09:15.254;0;Wrist;1;59624;12,74;-0,7608630992118595;0,8194830164494766;0;0,8194830164494766;-0,7608630992118595;0,39119847378841516;-2,288888210699789;11,047700430310984;-9,002960295419172
12:09:15.256;0;Wrist;1;59625;11,51;-0,9534714923741875;0,6400341807306131;0,6771203092097232;0,6400341807306131;-0,9534714923741875;0,6771203092097232;-4,150517288735618;11,41392254402295;-11,20029297769097
12:09:15.256;0;Wrist;1;59626;11,51;-1,2585345727027193;0,651997436445204;0,9726127372814112;0,651997436445204;-1,2585345727027193;0,9726127372814112;-5,188146610919523;11,963255714590899;-11,902218695638904
12:09:15.256;0;Wrist;1;59627;11,51;-1,2226448055589465;0,7488998434972686;1,043195969840083;0,7488998434972686;-1,2226448055589465;1,043195969840083;-4,852443006683553;12,604144413586841;-11,017181920834986
12:09:15.256;0;Wrist;1;59628;11,51;-1,3458662678914761;0,9116000973731193;1,3793634315775019;0,9116000973731193;-1,3458662678914761;1,3793634315775019;-4,577776421399578;12,115848261970886;-10,284737693411055
12:09:15.257;0;Wrist;1;59629;11,51;-1,3159581286049988;0,8135013885921811;1,2860499893185218;0,8135013885921811;-1,3159581286049988;1,2860499893185218;-0,4882961516159551;14,801477095858639;-9,094515823847164
12:09:15.257;0;Wrist;1;59630;10,5;-1,4726767546235542;0;0,9044221677869503;0,412732322153386;-1,4726767546235542;0,9044221677869503;10,681478316599017;15,655995361186559;-9,857478560747094
12:09:15.258;0;Wrist;1;59631;10,5;-1,4834437086092715;0;0;0,08015381775824382;-1,4834437086092715;0,3816278513348033;23,102511673329875;14,160588396862698;-9,308145390179144
12:09:15.258;0;Wrist;1;59632;10,5;-1,2908353154469436;0,5658619833788567;0,5000640769486069;0,5658619833788567;-1,2908353154469436;0,5000640769486069;26,062807092501604;7,782219916379284;-6,0121463667714465
12:09:15.258;0;Wrist;1;59633;10,5;-1,0372143419827875;0,9750053407391583;0,5144199957274087;0,9750053407391583;-1,0372143419827875;0,5144199957274087;25,97125156407361;4,913480025635548;-3,7842951750236518
12:09:15.259;0;Wrist;1;59634;10,5;-1,0982269222846157;1,2274300124744408;0;1,2274300124744408;-1,0982269222846157;0,4761375953226569;26,276436658833582;6,225775933103427;-3,1128879665517135
12:09:15.283;0;Mov;1;13301;12,22;2,48596458517716;-25,54155095065157;-17,992736594744713;-25,54155095065157;2,48596458517716;-17,992736594744713;-178,86898403881955;41,41361735892819;136,72292245246743
12:09:15.283;0;Mov;1;13302;12,22;-2,6773766766106144;-22,354539246803185;-19,155566194647054;-22,354539246803185;-2,6773766766106144;-19,155566194647054;-155,6138798181097;46,998504593035676;131,7178868984039
12:09:15.283;0;Mov;1;13303;12,22;-9,02268765068514;-17,919761116367077;-10,763341357158117;-17,919761116367077;-9,02268765068514;-10,763341357158117;-78,73775444807275;67,87316507461776;100,92471083712272
12:09:15.283;0;Mov;1;13304;12,22;-35,9053201391644;-28,005981627857295;11,795770134586627;-28,005981627857295;-35,9053201391644;11,795770134586627;369,24344615009005;83,49864192632832;19,409772026734213
12:09:15.283;0;Mov;1;13305;12,22;-13,670412495803705;-12,733689764091922;-7,011664269692068;-12,733689764091922;-13,670412495803705;-7,011664269692068;496,81081575975827;38,0260628070925;-30,51850947599719
12:09:15.284;0;Mov;1;13306;11,14;29,488229392376475;-3,791155879009369;5,430121673482467;-3,791155879009369;29,488229392376475;5,430121673482467;416,66920987578965;-21,027253028962065;-16,96829126865444
12:09:15.285;0;Mov;1;13307;11,14;24,387096774193548;9,918735885189367;3,4083316961424606;9,918735885189367;24,387096774193548;3,4083316961424606;94,05804620502335;-22,247993408001953;48,615985595263524
12:09:15.285;0;Mov;1;13308;11,14;-29,46669667653432;4,053151322214423;-8,623114528336435;4,053151322214423;-29,46669667653432;-8,623114528336435;50,66072573015534;27,253028962065493;54,53657643360698
12:09:15.285;0;Mov;1;13309;11,14;11,27177972502823;-2,191668399227882;5,634693441572313;-2,191668399227882;11,27177972502823;5,634693441572313;63,32590716269417;69,36857203894162;78,98190252388073
12:09:15.285;0;Mov;1;13310;11,14;-4,656099314859462;-5,808160649433882;-1,6916043818857387;-5,808160649433882;-4,656099314859462;-1,6916043818857387;29,969176305429244;93,60026856288339;80,05005035554063
12:09:15.286;0;Mov;1;13311;10,22;4,111771179845577;-4,888186380352184;0,9187780865657521;-4,888186380352184;4,111771179845577;0,9187780865657521;43,70250556962798;42,60383922849208;68,4530167546617
12:09:15.286;0;Mov;1;13312;10,22;4,538859122745445;-0,6962614945104831;0,9439008997238075;-0,6962614945104831;4,538859122745445;0,9439008997238075;32,013916440321054;21,149327066866054;34,08917508468886
12:09:15.286;0;Mov;1;13313;10,22;0,5096347292054506;-2,5206579313791315;0;-2,5206579313791315;0,5096347292054506;-0,3313821952154607;11,871700186162908;26,39851069673757;9,24710837122715
12:09:15.286;0;Mov;1;13314;10,22;1,1975218731879635;-1,5767571508682516;0;-1,5767571508682516;1,1975218731879635;-0,1435590685750908;1,0376293221839046;24,750511185033723;-0,640888698995941
12:09:15.286;0;Mov;1;13315;10,22;-0,6496047733809931;-1,801666286774804;0;-1,801666286774804;-0,6496047733809931;-0,22969452164143803;-9,155552842799157;27,130954924161504;-8,331553086947233
12:09:15.286;0;Wrist;1;59635;10,09;-1,085067364841151;1,095834199613941;0;1,095834199613941;-1,085067364841151;0,49886777521973324;27,83288064210944;9,33866389965514;-2,9908139286477247
12:09:15.286;0;Wrist;1;59636;10,09;-1,0778893160420544;0,8972441785943175;0;0,8972441785943175;-1,0778893160420544;0,46776330440115055;30,30487990966521;12,26844080935087;-3,7232581560716573
12:09:15.286;0;Wrist;1;59637;10,09;-1,0778893160420544;0,717795342875454;0;0,717795342875454;-1,0778893160420544;0,45580004868655966;31,678212836085084;13,855403302102726;-4,8829615161595505
12:09:15.286;0;Wrist;1;59638;10,09;-1,1592395025864437;0,9462935627880185;0,5909848561433759;0,9462935627880185;-1,1592395025864437;0,5909848561433759;32,25806451612903;15,015106662190618;-5,981627857295449
12:09:15.286;0;Wrist;1;59639;10,09;-1,2669088040177618;0,9295449809450056;0,7728263549264504;0,9295449809450056;-1,2669088040177618;0,7728263549264504;32,44117557298502;18,82992034669027;-5,584887234107486
12:09:15.329;0;Mov;1;13316;10,11;-1,3530441974776453;-2,5051058896908476;0;-2,5051058896908476;-1,3530441974776453;-0,25362103307061984;-14,89303262428663;27,1614734336375;-7,507553331095309
12:09:15.329;0;Mov;1;13317;10,11;-1,7274941490295115;-2,1067294267097996;0;-2,1067294267097996;-1,7274941490295115;-0,20935697500534073;-14,954069643238624;22,644734031189916;-2,5940733054597613
12:09:15.329;0;Mov;1;13318;10,11;-1,1197607110431227;-3,257594578768273;0;-3,257594578768273;-1,1197607110431227;-0,32061527103297527;-10,742515335551012;16,96829126865444;1,098666341135899
12:09:15.329;0;Mov;1;13319;10,11;-0,8613544114505448;-3,493270668660543;0;-3,493270668660543;-0,8613544114505448;-0,4617816765438551;-7,690664387951292;8,02636799218726;-0,3967406231879635
12:09:15.330;0;Mov;1;13320;10,11;-0,9247597144230476;-2,81495411732841;0;-2,81495411732841;-0,9247597144230476;-0,3182226079687643;-7,202368236335337;-0,030518509475997192;-3,326517532883694
12:09:15.338;0;Wrist;1;59640;10,11;-1,381756035035249;0,6842982387958922;0,7812005862414929;0,6842982387958922;-1,381756035035249;0,7812005862414929;34,33332316049684;24,01806695760979;-3,9979247413556322
12:09:15.338;0;Wrist;1;59641;10,11;-1,2788720597323526;0,8398205630855738;0;0,8398205630855738;-1,2788720597323526;0,47972656011574144;36,22547074800867;27,588732566301463;-1,1902218695638904
12:09:15.338;0;Wrist;1;59642;10,11;-1,097030620555742;1,0539628046128726;0;1,0539628046128726;-1,097030620555742;0,47972656011574144;35,15732291634877;29,450361644337292;1,8005920590838342
12:09:15.338;0;Wrist;1;59643;10,11;-1,0754967125843073;0,9271523178807947;0,6675496569528794;0,9271523178807947;-1,0754967125843073;0,6675496569528794;33,53984191412091;32,10547196874904;3,814813684499649
12:09:15.339;0;Wrist;1;59644;10,11;-0,9295449809450056;0,8661397375789667;0,8003418311487167;0,8661397375789667;-0,9295449809450056;0,8003418311487167;32,776879177220984;36,40858180486465;5,371257667775506
12:09:15.360;0;Mov;1;13321;9,83;-1,097030620555742;-2,3089083529160437;0;-2,3089083529160437;-1,097030620555742;-0,11604358490201651;-6,95822016052736;-5,096591082491531;-4,791405987731559
12:09:15.360;0;Mov;1;13322;9,83;-0,7608630992118595;-2,3735100768303474;0;-2,3735100768303474;-0,7608630992118595;-0,0119632557145909;-7,507553331095309;-7,843256935331278;-4,913480025635548
12:09:15.360;0;Mov;1;13323;9,83;0;-2,5362102114932705;0;-2,5362102114932705;-0,4306772057252724;-0,0466566987770661;-9,369182409131138;-10,22370067445906;-6,775109103671377
12:09:15.360;0;Mov;1;13324;9,83;-0,6484084716521195;-2,2526810987426376;0;-2,2526810987426376;-0,6484084716521195;-0,22610554194673757;-11,291848506118962;-13,397625659962767;-10,071108127079073
12:09:15.360;0;Mov;1;13325;9,83;-0,9450972014526811;-1,9033540795617543;0;-1,9033540795617543;-0,9450972014526811;-0,3624866660340434;-11,597033600878934;-16,571550645466477;-11,291848506118962
12:09:15.368;0;Wrist;1;59645;9,81;-0,9295449809450056;0,9785943651387067;0,783593249305704;0,9785943651387067;-0,9295449809450056;0,783593249305704;31,73924985503708;42,05450605792413;6,164738914151433
12:09:15.368;0;Wrist;1;59646;9,81;-0,8769066319582202;1,231019036873989;0,8242683425778985;1,231019036873989;-0,8769066319582202;0,8242683425778985;29,938657795953247;48,28028199102756;5,920590838343455
12:09:15.368;0;Wrist;1;59647;9,81;-0,6986541575746941;1,216663177701651;0,661568029095584;1,216663177701651;-0,6986541575746941;0,661568029095584;28,412732322153385;55,14694662312693;4,638813440351573
12:09:15.368;0;Wrist;1;59648;9,81;-0,7608630992118595;1,0982269222846157;0,7189917042107914;1,0982269222846157;-0,7608630992118595;0,7189917042107914;27,06991790520951;60,24353770561846;1,9837031159398175
12:09:15.368;0;Wrist;1;59649;9,81;-0,8769066319582202;0,8721213654362621;0,6807092740028077;0,8721213654362621;-0,8769066319582202;0,6807092740028077;27,1614734336375;63,57005523850215;-1,0681478316599018
12:09:15.420;0;Mov;1;13326;9,97;-0,8637470745147557;-1,629395499855037;0;-1,629395499855037;-0,8637470745147557;-0,39837643317781607;-11,291848506118962;-18,55525376140629;-10,52888576921903
12:09:15.420;0;Mov;1;13327;9,97;-0,8362315982924894;-1,2118778515732291;-0,6890835649243141;-1,2118778515732291;-0,8362315982924894;-0,6890835649243141;-11,169774468214973;-18,79940183721427;-9,460737937559129
12:09:15.420;0;Mov;1;13328;9,97;-0,9331339457380902;-0,8625507727858821;-0,5873958913502915;-0,8625507727858821;-0,9331339457380902;-0,5873958913502915;-11,108737449262978;-16,663106173894466;-7,72118289742729
12:09:15.420;0;Mov;1;13329;9,97;-0,5861995300149541;-0,937919271866512;0;-0,937919271866512;-0,5861995300149541;-0,3624866660340434;-11,017181920834986;-12,421033356730858;-5,981627857295449
12:09:15.420;0;Mov;1;13330;9,97;0;-1,4762657790231024;0;-1,4762657790231024;-0,3696645956202124;-0,415124985217597;-11,810663167210913;-9,308145390179144;-6,103701895199438
12:09:15.428;0;Wrist;1;59650;9,96;-0,7465071804330576;0,7130100763534959;0,6137150062372204;0,7130100763534959;-0,7465071804330576;0,6137150062372204;26,917325357829522;65,37064729758599;-3,2654805139316996
12:09:15.428;0;Wrist;1;59651;9,96;-0,8864772842150639;0,7895748771629993;0,7345439247184667;0,7895748771629993;-0,8864772842150639;0,7345439247184667;25,54399243140965;66,4082766197699;-4,547257911923582
12:09:15.428;0;Wrist;1;59652;9,96;-0,8517838188001648;0,7728263549264504;0,6842982387958922;0,7728263549264504;-0,8517838188001648;0,6842982387958922;24,47584459974975;67,4459059419538;-5,1576281014435255
12:09:15.428;0;Wrist;1;59653;9,96;-0,7560777730834376;0,6340525528733176;0,6292672863513596;0,6340525528733176;-0,7560777730834376;0,6292672863513596;23,163548692281868;68,33094271675772;-5,798516800439467
12:09:15.428;0;Wrist;1;59654;9,96;-0,7943602032914212;0,6268746232871486;0,7931638419560839;0,6268746232871486;-0,7943602032914212;0,7931638419560839;20,75258644367809;69,36857203894162;-5,7374797814874725
12:09:15.578;0;Wrist;1;59655;11,22;-0,835035236957152;0,6926725297173986;0,8541764818643758;0,6926725297173986;-0,835035236957152;0,8541764818643758;19,287697988830224;71,04709006012146;-6,042664876247444
12:09:15.578;0;Wrist;1;59656;11,22;-0,8852809228797266;0;0;0,46297800807596057;-0,8852809228797266;0,4928861473624378;19,318216498306224;72,7256080813013;-7,080294198431349
12:09:15.578;0;Wrist;1;59657;11,22;-0,5299722162350841;0;0;0,08135014183954131;-0,5299722162350841;-0,43187353725737787;15,655995361186559;70,95553453169347;-6,317331461531419
12:09:15.578;0;Wrist;1;59658;11,22;0;0;0;0,43306986878948334;-0,43306986878948334;-0,43546250205046233;7,324442274239326;63,142796105838194;-4,486220892971588
12:09:15.579;0;Wrist;1;59659;11,22;-0,6400341807306131;0,8924589120723594;0,8541764818643758;0,8924589120723594;-0,6400341807306131;0,8541764818643758;1,6785180211798456;53,77361369670705;-6,500442518387402
12:09:15.581;0;Wrist;1;59660;10,59;-0,7429182156399732;0,5550950889996032;1,3279213843195898;0,5550950889996032;-0,7429182156399732;1,3279213843195898;4,7303689687795645;52,88857692190314;-11,871700186162908
12:09:15.581;0;Wrist;1;59661;10,59;-0,6699423200170904;0;0;0,11604358490201651;-0,6699423200170904;0,4976714436876278;7,5685903500473035;57,008575701162755;-15,10666219061861
12:09:15.581;0;Wrist;1;59662;10,59;-0,7955565050202948;0;-0,5180089605204932;0,07895748622613834;-0,7955565050202948;-0,5180089605204932;5,401776177251503;55,269020661030915;-15,198217719046601
12:09:15.581;0;Wrist;1;59663;10,59;-0,5873958913502915;0;0;0,34813074725524157;-0,5873958913502915;-0,3553087066446425;-1,73955504013184;45,6862086855678;-13,794366283150731
12:09:15.581;0;Wrist;1;59664;10,59;0;1,1676137339014863;1,055159225554674;1,1676137339014863;-0,3888058107242042;1,055159225554674;-11,444441053498947;37,87347025971251;-13,550218207342754
12:09:15.583;0;Wrist;1;59665;10,05;-0,6149113675725577;0,8039307959418012;1,6222174510559404;0,8039307959418012;-0,6149113675725577;1,6222174510559404;-12,878810998870815;40,92532120731224;-17,853328043458358
12:09:15.585;0;Wrist;1;59666;10,05;-0,6675496569528794;0,5407391702208014;1,28963901371807;0,5407391702208014;-0,6675496569528794;1,28963901371807;-8,087405011139255;48,28028199102756;-22,644734031189916
12:09:15.585;0;Wrist;1;59667;10,05;0;0,7788079827837459;1,0192694584109012;0,7788079827837459;-0,49049348429822687;1,0192694584109012;-3,3875545518356884;53,132724997711115;-27,344584490493485
12:09:15.585;0;Wrist;1;59668;10,05;0;0,7788079827837459;0,7441145173688467;0,7788079827837459;-0,49049348429822687;0,7441145173688467;-0,030518509475997192;55,4216132084109;-32,593768120365
12:09:15.585;0;Wrist;1;59669;10,05;-0,6017517505226295;0,6316598898091067;0;0,6316598898091067;-0,6017517505226295;0,2895108002143925;1,5564439832758568;56,73390911587878;-37,29361857966857
12:09:15.601;0;Mov;1;13331;11,61;0;-1,6114506162831508;-0,5060457048059023;-1,6114506162831508;-0,4809228916478469;-0,5060457048059023;-12,665181432538835;-8,941923276467177;-7,751701406903287
12:09:15.601;0;Mov;1;13332;11,61;-0,6795129126674703;-1,6856227540284432;0;-1,6856227540284432;-0,6795129126674703;-0,42349924633587144;-13,153477584154789;-9,582811975463118;-8,819849238563188
12:09:15.601;0;Mov;1;13333;11,61;-0,8577654466574602;-1,8842127750480666;0;-1,8842127750480666;-0,8577654466574602;-0,1770561875562685;-13,36710715048677;-10,376293221839045;-8,636738181707205
12:09:15.601;0;Mov;1;13334;11,61;-0,9343303070734276;-2,1904722167119357;0;-2,1904722167119357;-0,9343303070734276;-0,0011963255947428648;-14,77095858638264;-11,871700186162908;-7,782219916379284
12:09:15.601;0;Mov;1;13335;11,61;-0,9199743882946257;-2,61756039803766;0;-2,61756039803766;-0,9199743882946257;-0,04426404688906713;-16,815698721274455;-15,625476851710562;-7,446516312143315
12:09:15.603;0;Mov;1;13336;10,95;-0,8709250041009247;-2,54099565683462;0;-2,54099565683462;-0,8709250041009247;-0,03947874311306917;-17,792291024506362;-22,553178502761924;-8,728293710135198
12:09:15.603;0;Mov;1;13337;10,95;-1,0192694584109012;-2,1988464480269783;0;-2,1988464480269783;-1,0192694584109012;-0,18303781541356395;-16,75466170232246;-29,78606524857326;-9,857478560747094
12:09:15.603;0;Mov;1;13338;10,95;-0,8948515155301066;-2,0768212874233223;0;-2,0768212874233223;-0,8948515155301066;-0,056227302603658026;-16,20532853175451;-35,8592486342967;-10,132145146031068
12:09:15.603;0;Mov;1;13339;10,95;-0,8697287023720511;-1,7179234967726675;0;-1,7179234967726675;-0,8697287023720511;-0,1961974026602603;-19,318216498306224;-38,33124790185247;-10,040589617603077
12:09:15.603;0;Mov;1;13340;10,95;-0,5084383678701132;-1,9835078451643422;0;-1,9835078451643422;-0,5084383678701132;0,20696432684274574;-25,513473921933652;-38,27021088290048;-9,67436750389111
12:09:15.605;0;Mov;1;13341;10,36;-1,1341166894283883;-2,155778632084109;-0,7584704361476485;-2,155778632084109;-1,1341166894283883;-0,7584704361476485;-30,549027985473188;-43,33628345591601;-12,81777397991882
12:09:15.605;0;Mov;1;13342;10,36;-1,0527665028839992;-1,42123482657857;-1,1568468991286966;-1,42123482657857;-1,0527665028839992;-1,1568468991286966;-32,41065706350902;-49,56205938901944;-15,472884304330577
12:09:15.605;0;Mov;1;13343;10,36;-0,6711386813524277;-1,2154667567598498;-0,5550950889996032;-1,2154667567598498;-0,6711386813524277;-0,5550950889996032;-32,532731101413006;-49,195837275307476;-12,512588885158848
12:09:15.605;0;Mov;1;13344;10,36;0;-1,9440290536210212;0;-1,9440290536210212;-0,40435806103511157;0,28352917235709707;-38,54487746818445;-42,72591326639607;-8,57570116275521
12:09:15.605;0;Mov;1;13345;10,36;0;-1,365007453192236;-0,7536851100192267;-1,365007453192236;-0,1292031646979049;-0,7536851100192267;-46,998504593035676;-39,39939573351238;-7,446516312143315
12:09:15.606;0;Mov;1;13346;9,85;-0,5048494030770287;-0,7381328895115512;-0,8984405399296549;-0,7381328895115512;-0,5048494030770287;-0,8984405399296549;-46,08294930875576;-35,8897671437727;-10,620441297647023
12:09:15.606;0;Mov;1;13347;9,85;0;-1,0802820387127292;0;-1,0802820387127292;-0,24285409398651844;0,02273018548518231;-45,258949552903836;-28,443250831629385;-10,620441297647023
12:09:15.608;0;Mov;1;13348;9,85;0;-1,873445940275277;0;-1,873445940275277;0,4773339268547624;0,4342662003215888;-53,19376201666311;-22,7973265785699;-8,545182653279214
12:09:15.608;0;Mov;1;13349;9,85;-0,9163854235015412;-1,5324930331965088;-1,30878019901883;-1,5324930331965088;-0,9163854235015412;-1,30878019901883;-55,60472426526688;-24,903103732413708;-9,277626880703146
12:09:15.608;0;Mov;1;13350;9,85;-1,5863276839121678;-1,0611408534119693;-1,4762657790231024;-1,0611408534119693;-1,5863276839121678;-1,4762657790231024;-45,38102359080783;-25,269325846125675;-10,162663655507066
12:09:15.638;0;Wrist;1;59670;10,08;-0,6125187045083468;0;0;0,4426404614398633;-0,6125187045083468;-0,417517618478576;4,8829615161595505;53,19376201666311;-42,51228370006409
12:09:15.639;0;Wrist;1;59671;10,08;-0,5527024259353923;0,6340525528733176;0;0,6340525528733176;-0,5527024259353923;0,02273018548518231;7,263405255287331;43,824579607531966;-48,00561540574358
12:09:15.639;0;Wrist;1;59672;10,08;-0,5933775192075869;1,0216620618686483;1,3721855019913327;1,0216620618686483;-0,5933775192075869;1,3721855019913327;8,392590105899227;40,345469527268286;-53,40739158299509
12:09:15.639;0;Wrist;1;59673;10,08;-0,7225806690038759;1,0683187829981384;1,915317335276345;1,0683187829981384;-0,7225806690038759;1,915317335276345;10,681478316599017;47,853022858363595;-58,076723532822655
12:09:15.639;0;Wrist;1;59674;10,08;-0,6986541575746941;0,8541764818643758;1,6796411261711477;0,8541764818643758;-0,6986541575746941;1,6796411261711477;10,52888576921903;58,99227881710257;-59,602649006622514
12:09:15.667;0;Wrist;1;59675;9,86;-0,7034394240966522;0,8158940516563921;1,6724631965849788;0,8158940516563921;-0,7034394240966522;1,6724631965849788;8,941923276467177;68,88027588732567;-59,7857600634785
12:09:15.667;0;Wrist;1;59676;9,86;-0,818286714720603;0,8697287023720511;1,5193334757530441;0,8697287023720511;-0,818286714720603;1,5193334757530441;11,597033600878934;77,45597705008088;-61,43375957518235
12:09:15.667;0;Wrist;1;59677;9,86;-0,766844727069155;0,8481948540070803;1,3350993139057588;0,8481948540070803;-0,766844727069155;1,3350993139057588;15,839106418042542;84,26160466322825;-63,50901821955016
12:09:15.667;0;Wrist;1;59678;9,86;-0,8948515155301066;0,7285622968611714;1,19632557145909;0,7285622968611714;-0,8948515155301066;1,19632557145909;16,663106173894466;89,51078829309976;-64,39405499435408
12:09:15.667;0;Wrist;1;59679;9,86;-0,8493911557359538;0,7728263549264504;1,0515702011551256;0,7728263549264504;-0,8493911557359538;1,0515702011551256;16,144291512802514;93,4781945249794;-63,90575884273812
12:09:15.721;0;Mov;1;13351;10,49;-0,5084383678701132;-1,1365092928861353;-0,5407391702208014;-1,1365092928861353;-0,5084383678701132;-0,5407391702208014;-37,903988769188516;-21,271401104770042;-7,782219916379284
12:09:15.722;0;Mov;1;13352;10,49;-0,7321512616542558;-1,4284127561647388;-0,8481948540070803;-1,4284127561647388;-0,7321512616542558;-0,8481948540070803;-34,48591570787683;-19,01303140354625;-5,127109591967528
12:09:15.722;0;Mov;1;13353;10,49;-1,3781671298486282;-1,2537492465742972;-1,4260201527069918;-1,2537492465742972;-1,3781671298486282;-1,4260201527069918;-27,49717703787347;-18,951994384594258;-4,760887478255562
12:09:15.722;0;Mov;1;13354;10,49;-0,9773980038033693;-1,3171544303338725;-0,5706473095072787;-1,3171544303338725;-0,9773980038033693;-0,5706473095072787;-20,599993896298106;-17,365031891842403;-4,4557023834955904
12:09:15.722;0;Mov;1;13355;10,49;-0,5084383678701132;-1,7370648012863552;0;-1,7370648012863552;-0,5084383678701132;-0,2667806203173162;-18,921475875118258;-15,198217719046601;-3,47911008026368
12:09:15.728;0;Wrist;1;59680;9,97;-0,8422132261497849;0,8804956563577685;1,1556504781868953;0,8804956563577685;-0,8422132261497849;1,1556504781868953;16,75466170232246;96,13330484939115;-63,72264778588214
12:09:15.728;0;Wrist;1;59681;9,97;-0,8936552138012329;0,9032258064516129;1,2836573858607745;0,9032258064516129;-0,8936552138012329;1,2836573858607745;17,73125400555437;98,69685964537491;-63,90575884273812
12:09:15.728;0;Wrist;1;59682;9,97;-0,8900662490081485;0,9032258064516129;1,3973083151493881;0,9032258064516129;-0,8900662490081485;1,3973083151493881;17,120883816034425;100,95522934659871;-63,32590716269417
12:09:15.728;0;Wrist;1;59683;9,97;-0,957060457167272;0,5754326356357006;1,1616321060441908;0,5754326356357006;-0,957060457167272;1,1616321060441908;19,501327555162206;104,52589495529038;-63,53953672902615
12:09:15.728;0;Wrist;1;59684;9,97;-0,9391155735953856;0,6041444135868405;1,3937192907498397;0,6041444135868405;-0,9391155735953856;1,3937192907498397;23,59080782494583;107,11996826075014;-64,0583513901181
12:09:15.780;0;Mov;1;13356;10,55;-0,6029481118579668;-1,702371335871456;-0,5395428684919279;-1,702371335871456;-0,6029481118579668;-0,5395428684919279;-18,524735251930295;-16,05273598437452;-4,333628345591602
12:09:15.780;0;Mov;1;13357;10,55;0;-1,24298229258858;-0,8338389352282785;-1,24298229258858;-0,48929718256935334;-0,8338389352282785;-16,418958098086488;-16,937772759178443;-5,645924253059481
12:09:15.780;0;Mov;1;13358;10,55;0;-1,1532578747291482;-0,6759239478743858;-1,1532578747291482;-0,24285409398651844;-0,6759239478743858;-12,359996337778863;-15,289773247474594;-5,401776177251503
12:09:15.780;0;Mov;1;13359;10,55;0;-1,376970708906827;0;-1,376970708906827;-0,2273018585772271;-0,32779320061914424;-10,071108127079073;-13,122959074678793;-4,364146855067599
12:09:15.780;0;Mov;1;13360;10,55;0;-1,5157445705664236;0;-1,5157445705664236;-0,2715659166425062;-0,3289895321512497;-10,22370067445906;-11,84118167668691;-3,7842951750236518
12:09:15.785;0;Mov;1;13361;10,12;0;-1,3255287808618428;-0,661568029095584;-1,3255287808618428;-0,43546250205046233;-0,661568029095584;-9,765923032319101;-11,41392254402295;-4,058961760307627
12:09:15.785;0;Mov;1;13362;10,12;0;-1,3255287808618428;-0,6591754256378368;-1,3255287808618428;-0,3971801016457106;-0,6591754256378368;-7,202368236335337;-10,284737693411055;-3,7537766655476545
12:09:15.785;0;Mov;1;13363;10,12;-0,579021600428785;-1,3961120134205145;-0,6819055757316813;-1,3961120134205145;-0,579021600428785;-0,6819055757316813;-3,6317026276436657;-10,315256202887051;-3,051850947599719
12:09:15.785;0;Mov;1;13364;10,12;-0,8936552138012329;-1,516940872295297;0;-1,516940872295297;-0,8936552138012329;-0,22012391408944212;0,15259254737998595;-10,376293221839045;-2,4719992675557725
12:09:15.785;0;Mov;1;13365;10,12;0;-1,9703482877208778;0;-1,9703482877208778;-0,3086520153183844;0,34813074725524157;-2,3194067201757864;-9,12503433332316;-1,1291848506118962
12:09:15.810;0;Mov;1;13366;9,9;-0,7596667378765221;-1,8961760307626576;0;-1,8961760307626576;-0,7596667378765221;-0,32061527103297527;-6,40888698995941;-11,20029297769097;-0,8545182653279214
12:09:15.810;0;Mov;1;13367;9,9;-0,8039307959418012;-1,5743644281975768;-0,5048494030770287;-1,5743644281975768;-0,8039307959418012;-0,5048494030770287;-6,225775933103427;-13,275551622058778;-1,098666341135899
12:09:15.810;0;Mov;1;13368;9,9;0;-1,3997009186071352;0;-1,3997009186071352;-0,36009400296983246;-0,31224098011146884;-4,8829615161595505;-14,1300698873867;-0,030518509475997192
12:09:15.810;0;Mov;1;13369;9,9;0;-1,4738731755653554;0;-1,4738731755653554;-0,473744932258446;-0,38760947919209876;-3,7842951750236518;-14,67940305795465;1,098666341135899
12:09:15.811;0;Mov;1;13370;9,9;-0,9450972014526811;-1,26212347788934;-0,7632557026696066;-1,26212347788934;-0,9450972014526811;-0,7632557026696066;-1,4343699453718681;-14,099551377910704;1,8005920590838342
12:09:15.818;0;Wrist;1;59685;10,34;-0,9857722947248756;0,6819055757316813;1,4176458021790215;0,6819055757316813;-0,9857722947248756;1,4176458021790215;29,81658375804926;110,53804132206183;-65,06546220282601
12:09:15.818;0;Wrist;1;59686;10,34;-0,9989318521683401;0,5826105652218696;1,1137790831858272;0,5826105652218696;-0,9989318521683401;1,1137790831858272;38,17865535447249;114,50544755394147;-66,56086916714987
12:09:15.818;0;Wrist;1;59687;10,34;-0,8446058892139958;0,5622730185857723;0,9953428873752556;0,5622730185857723;-0,8446058892139958;0,9953428873752556;46,113467818231754;116,15344706564531;-67,87316507461776
12:09:15.818;0;Wrist;1;59688;10,34;-0,830249970435194;0,8039307959418012;1,323136058191168;0,8039307959418012;-0,830249970435194;1,323136058191168;53,224280526139104;115,66515091402935;-69,09390545365764
12:09:15.818;0;Wrist;1;59689;10,34;-0,7919675402272103;0,6161076693014313;1,2322153386028627;0,6161076693014313;-0,7919675402272103;1,2322153386028627;61,12857448042238;117,28263191625722;-71,01657155064547
12:09:15.819;0;Wrist;1;59690;9,9;-0,6280709250160222;0,5204016235847041;0,8135013885921811;0,5204016235847041;-0,6280709250160222;0,8135013885921811;66,95760979033784;119,05270546586505;-73,58012634662923
12:09:15.819;0;Wrist;1;59691;9,9;-0,5586840537926878;0,710617413289285;1,1149755041276284;0,710617413289285;-0,5586840537926878;1,1149755041276284;69,70427564317758;116,82485427411726;-75,80797753837703
12:09:15.819;0;Wrist;1;59692;9,9;-0,6029481118579668;0,7656483657338176;1,2058962237159336;0,7656483657338176;-0,6029481118579668;1,2058962237159336;73,51908932767724;116,42811365092929;-78,09686574907681
12:09:15.819;0;Wrist;1;59693;9,9;0;0,7130100763534959;1,2944243398464919;0,7130100763534959;-0,3361674915406507;1,2944243398464919;78,3104953154088;116,94692831202124;-80,66042054506057
12:09:15.819;0;Wrist;1;59694;9,9;0;0,6890835649243141;1,5444562889110995;0,6890835649243141;-0,25720999786370435;1,5444562889110995;81,57597582934049;117,4047059541612;-83,6817529831843
12:09:15.907;0;Wrist;1;59695;10,22;0;0;1,887801799447615;0,4019653979709006;-0,04187139500106815;1,887801799447615;84,96353038117618;119,510483108005;-85,63493758964812
12:09:15.907;0;Wrist;1;59696;10,22;0;0,9809869685964537;2,0361460749382;0,9809869685964537;0,03349711525577372;2,0361460749382;87,16086306344798;119,90722373119297;-87,40501113925596
12:09:15.907;0;Wrist;1;59697;10,22;0;0;1,7466353343302714;0,2464430736812189;-0,08135014183954131;1,7466353343302714;87,52708517715995;124,14929654835657;-90,67049165318765
12:09:15.908;0;Wrist;1;59698;10,22;1,2992095467619862;0;3,269557834482864;-0,38760947919209876;1,2992095467619862;3,269557834482864;78,58516190069277;125,0343333231605;-90,48738059633168
12:09:15.908;0;Wrist;1;59699;10,22;8,620722640156254;0;12,834180539872433;-0,025122837373181287;8,620722640156254;12,834180539872433;60,33509323404645;97,32352671895505;-71,26071962645345
12:09:15.937;0;Wrist;1;59700;10,05;13,285195471053195;2,246699470885342;19,41636402478103;2,246699470885342;13,285195471053195;19,41636402478103;47,21213415936766;26,18488113040559;-25,940733054597615
12:09:15.937;0;Wrist;1;59701;10,05;11,14137985625782;2,7862423989837337;16,08818704794458;2,7862423989837337;11,14137985625782;16,08818704794458;34,66902676473281;-23,499252296517838;9,460737937559129
12:09:15.937;0;Wrist;1;59702;10,05;7,827558500167852;3,641615182576983;13,507712599566638;3,641615182576983;7,827558500167852;13,507712599566638;6,103701895199438;-67,62901699880977;44,61806085390789
12:09:15.937;0;Wrist;1;59703;10,05;4,750608939634389;2,981243276390881;11,825678273873104;2,981243276390881;4,750608939634389;11,825678273873104;-10,559404278695029;-101,93182164983062;71,99316385387738
12:09:15.937;0;Wrist;1;59704;10,05;1,6939969853434858;3,2898953215124975;8,832471503341777;3,2898953215124975;1,6939969853434858;8,832471503341777;-12,512588885158848;-124,05774101992859;84,20056764427625
12:09:15.990;0;Mov;1;13371;10,99;-1,0132878305536057;-1,4056825464644307;-0,7357402264473403;-1,4056825464644307;-1,0132878305536057;-0,7357402264473403;1,7700735496078372;-10,589922788171025;2,8992584002197335
12:09:15.990;0;Mov;1;13372;10,99;-1,3913266872920926;-1,8471267061754204;-0,9893612595179602;-1,8471267061754204;-1,3913266872920926;-0,9893612595179602;5,249183629871517;-7,660145878475295;3,814813684499649
12:09:15.990;0;Mov;1;13373;10,99;-2,089980725653859;-1,7873104276024658;-1,7167271950437941;-1,7873104276024658;-2,089980725653859;-1,7167271950437941;11,719107638782923;-9,002960295419172;2,685628833887753
12:09:15.991;0;Mov;1;13374;10,99;0;-1,548045313310648;0;-1,548045313310648;-0,3014740559289834;-0,32420423582605973;19,196142460402235;-9,308145390179144;0,5188146610919523
12:09:15.991;0;Mov;1;13375;10,99;0;-1,303994872890408;0;-1,303994872890408;0,4569963802186651;-0,009570604757942918;19,13510544145024;-8,178960539567248;-0,12207403790398877
12:09:15.992;0;Mov;1;13376;10,56;-0,996539248710593;-1,650929288613544;-0,6795129126674703;-1,650929288613544;-0,996539248710593;-0,6795129126674703;16,96829126865444;-5,615405743583484;-1,3122959074678793
12:09:15.992;0;Mov;1;13377;10,56;0;-1,477462080751976;0;-1,477462080751976;-0,03947874311306917;-0,290707131746498;16,08325449385052;-3,051850947599719;-3,7537766655476545
12:09:15.993;0;Mov;1;13378;10,56;0,8099124237990967;-0,9654347480887784;0;-0,9654347480887784;0,8099124237990967;-0,1387737722499008;13,428144169438765;-0,18311105685598317;-6,042664876247444
12:09:15.993;0;Mov;1;13379;10,56;0;-0,888869887672811;-0,881691958086642;-0,888869887672811;-0,0693868861249504;-0,881691958086642;12,085329752494888;4,303109836115604;-8,239997558519242
12:09:15.993;0;Mov;1;13380;10,56;-0,651997436445204;0;-1,6329844050416578;-0,2679769220461898;-0,651997436445204;-1,6329844050416578;16,693624683370466;9,735404522843105;-10,803552354503006
12:09:15.993;0;Mov;1;13381;10,16;-0,874514028500473;0;-2,192864820169683;0,44503312450407423;-0,874514028500473;-2,192864820169683;27,466658528397474;19,47080904568621;-10,559404278695029
12:09:15.994;0;Mov;1;13382;10,16;-1,3554369201483198;0;-2,1832941679128393;-0,1890194432708594;-1,3554369201483198;-2,1832941679128393;42,51228370006409;31,830805383465073;-8,48414563432722
12:09:15.994;0;Mov;1;13383;10,16;-0,940311934930723;-0,9223670513588367;-1,010895107882931;-0,9223670513588367;-0,940311934930723;-1,010895107882931;50,96591082491531;37,81243324076052;-6,653035065767388
12:09:15.994;0;Mov;1;13384;10,16;0;-1,2190557811593983;0;-1,2190557811593983;-0,14236275194460127;-0,10168767357402264;55,14694662312693;41,99346903897214;-3,69273964659566
12:09:15.994;0;Mov;1;13385;10,16;0;-1,13052766502884;-1,0922452944273202;-1,13052766502884;-0,358897671437727;-1,0922452944273202;48,738059633167516;46,113467818231754;-0,640888698995941
12:09:16.020;0;Mov;1;13386;9,98;-1,8160222651600695;-1,2130741533021028;-1,179576989616077;-1,2130741533021028;-1,8160222651600695;-1,179576989616077;44,98428296761986;46,57124546037171;2,6551103244117558
12:09:16.020;0;Mov;1;13387;9,98;-0,8876735859439375;-2,0816064943388164;0,5658619833788567;-2,0816064943388164;-0,8876735859439375;0,5658619833788567;31,95287942136906;51,42368846705527;12,329477828302865
12:09:16.020;0;Mov;1;13388;9,98;-2,3196754261146886;-3,5829950865199742;0;-3,5829950865199742;-2,3196754261146886;0,473744932258446;31,891842402417065;42,4207281716361;15,10666219061861
12:09:16.020;0;Mov;1;13389;9,98;0;-1,9177099387340921;0;-1,9177099387340921;-0,37205725868442335;0,0239265114291818;34,7911008026368;35,73717459639271;15,503402813806574
12:09:16.020;0;Mov;1;13390;9,98;0,5311685775704215;-0,8446058892139958;-1,2154667567598498;-0,8446058892139958;0,5311685775704215;-1,2154667567598498;36,89687795648061;42,756431775872066;14,069032868434705
12:09:16.053;0;Mov;1;13391;9,86;1,2274300124744408;0;0;-0,1818414838814585;1,2274300124744408;-0,07776116214484084;-0,030518509475997192;66,3777581102939;12,93984801782281
12:09:16.053;0;Mov;1;13392;9,86;-0,5909848561433759;-2,4919462130344554;1,0695150847270118;-2,4919462130344554;-0,5909848561433759;1,0695150847270118;-16,20532853175451;82,88827173680838;10,101626636555071
12:09:16.053;0;Mov;1;13393;9,86;0;-1,597094637897885;0,6149113675725577;-1,597094637897885;-0,2895108002143925;0,6149113675725577;-8,270516067995239;76,082644123661;6,19525742362743
12:09:16.053;0;Mov;1;13394;9,86;-0,8757103302293466;0,6376415176664022;0;0,6376415176664022;-0,8757103302293466;0,12441786092190694;-1,281777397991882;72,54249702444532;3,021332438123722
12:09:16.053;0;Mov;1;13395;9,86;-0,7524888082903531;0;0;-0,39119847378841516;-0,7524888082903531;0,0693868861249504;7,202368236335337;80,17212439344462;3,6011841181676685
12:09:16.060;0;Wrist;1;59705;10,61;0;3,5937621597186196;6,620465617084261;3,5937621597186196;-0,21653493439474167;6,620465617084261;-5,7374797814874725;-135,65477462080753;83,89538254951628
12:09:16.060;0;Wrist;1;59706;10,61;-1,1843623157444991;3,975389921643727;5,467207861568041;3,975389921643727;-1,1843623157444991;5,467207861568041;0,9765923032319102;-140,0799584948271;75,16708883938108
12:09:16.060;0;Wrist;1;59707;10,61;-1,6114506162831508;4,747020153660695;5,421747680593279;4,747020153660695;-1,6114506162831508;5,421747680593279;1,098666341135899;-139,59166234321117;61,79998168889431
12:09:16.060;0;Wrist;1;59708;10,61;-1,0922452944273202;5,450459398937956;7,060713713492233;5,450459398937956;-1,0922452944273202;7,060713713492233;-5,462813196203498;-136,23462630085146;47,05954161198767
12:09:16.060;0;Wrist;1;59709;10,61;0;5,958897766808069;10,752574045533617;5,958897766808069;0,09211707347283471;10,752574045533617;-17,883846552934354;-138,76766258735924;33,6924344615009
12:09:16.062;0;Wrist;1;59710;10,23;0,9821833299317911;6,789147618030335;12,871267204809717;6,789147618030335;0,9821833299317911;12,871267204809717;-30,4269539475692;-149,69328897976624;27,100436414685507
12:09:16.062;0;Wrist;1;59711;10,23;0,5550950889996032;7,73783408230842;11,983593440046388;7,73783408230842;0,5550950889996032;11,983593440046388;-44,068727683339944;-163,48765526291695;25,788140507217626
12:09:16.062;0;Wrist;1;59712;10,23;-0,6173040306367688;8,907840777306436;10,662849627674184;8,907840777306436;-0,6173040306367688;10,662849627674184;-56,245612964262826;-174,9626148258919;20,99673451948607
12:09:16.062;0;Wrist;1;59713;10,23;-1,2585345727027193;9,991711363567003;9,381585322122868;9,991711363567003;-1,2585345727027193;9,381585322122868;-57,34427930539872;-180,73061311685538;12,665181432538835
12:09:16.062;0;Wrist;1;59714;10,23;-1,1448836434141056;11,544541764580218;7,5882933858760335;11,544541764580218;-1,1448836434141056;7,5882933858760335;-55,116428113650926;-180,70009460737938;2,71614734336375
12:09:16.118;0;Wrist;1;59715;10,27;0;12,829395809808648;7,469857249671926;12,829395809808648;-0,23089083827192755;7,469857249671926;-60,67079683828242;-173,19254127628406;-10,589922788171025
12:09:16.118;0;Wrist;1;59716;10,27;1,5013885921811578;14,233881458479567;8,694894062623982;14,233881458479567;1,5013885921811578;8,694894062623982;-70,13153477584154;-165,56291390728478;-22,8278450880459
12:09:16.118;0;Wrist;1;59717;10,27;2,988421325189978;15,305789742728965;9,781158444471572;15,305789742728965;2,988421325189978;9,781158444471572;-78,09686574907681;-165,80706198309275;-31,464583269753106
12:09:16.119;0;Wrist;1;59718;10,27;4,211066011535997;15,748430204168828;9,578979041413618;15,748430204168828;4,211066011535997;9,578979041413618;-75,93005157628102;-169,89654225287637;-35,8592486342967
12:09:16.119;0;Wrist;1;59719;10,27;6,092886421552171;16,05708296456801;8,251057657094028;16,05708296456801;6,092886421552171;8,251057657094028;-66,83553575243386;-175,9697256385998;-34,058656575212865
12:09:16.120;0;Wrist;1;59720;9,93;7,406451708273568;16,054689168980985;6,481692232276376;16,054689168980985;7,406451708273568;6,481692232276376;-59,419537949766536;-180,45594653157139;-28,38221381267739
12:09:16.120;0;Wrist;1;59721;9,93;7,585900543992431;15,427815141758476;5,354753353221229;15,427815141758476;7,585900543992431;5,354753353221229;-49,83672597430341;-181,82927945799128;-21,21036408581805
12:09:16.120;0;Wrist;1;59722;9,93;8,235505615405744;14,63106173894467;5,867976928006836;14,63106173894467;8,235505615405744;5,867976928006836;-29,633472701193273;-183,20261238441114;-11,719107638782923
12:09:16.120;0;Wrist;1;59723;9,93;9,199743644520401;13,835505233924374;7,575133709219641;13,835505233924374;9,199743644520401;7,575133709219641;-6,134220404675435;-186,49861140781883;0,21362956633198035
12:09:16.120;0;Wrist;1;59724;9,93;9,028669278542436;12,701388782921843;8,626704268013551;12,701388782921843;9,028669278542436;8,626704268013551;15,076143681142613;-193,91460921048616;14,862514114810633
12:09:16.149;0;Mov;1;13396;10,19;-1,4343943840220343;-3,365263880199591;0;-3,365263880199591;-1,4343943840220343;-0,1076693014313181;11,322367015594958;82,97982726523637;6,103701895199438
12:09:16.149;0;Mov;1;13397;10,19;-1,301602269432661;-2,457252866832484;0;-2,457252866832484;-1,301602269432661;-0,41871395001068146;17,975402081362347;63,600573747978146;6,561479537339396
12:09:16.150;0;Mov;1;13398;10,19;-1,0886562700277718;-2,6044007213812677;-0,7883785754341258;-2,6044007213812677;-1,0886562700277718;-0,7883785754341258;18,982512894070254;47,39524521622364;10,040589617603077
12:09:16.150;0;Mov;1;13399;10,19;-1,06472975859859;-2,185686771370586;-0,9510788293099764;-2,185686771370586;-1,06472975859859;-0,9510788293099764;21,05777153843806;35,73717459639271;11,108737449262978
12:09:16.150;0;Mov;1;13400;10,19;-0,9510788293099764;-2,566118350779748;-1,13052766502884;-2,566118350779748;-0,9510788293099764;-1,13052766502884;23,46873378704184;26,581621753593556;10,98666341135899
12:09:16.200;0;Mov;1;13401;10,18;-0,937919271866512;-3,45738090151677;-0,9223670513588367;-3,45738090151677;-0,937919271866512;-0,9223670513588367;21,97332682271798;15,808587908566546;10,864589373455
12:09:16.200;0;Mov;1;13402;10,18;-0,6292672863513596;-3,2540055543687245;-0,774022656655324;-3,2540055543687245;-0,6292672863513596;-0,774022656655324;20,813623462630087;0;8,972441785943175
12:09:16.200;0;Mov;1;13403;10,18;-0,5945738209364605;-2,9082675595873897;-0,6388378790017396;-2,9082675595873897;-0,5945738209364605;-0,6388378790017396;20,23377178258614;-13,306070131534776;5,096591082491531
12:09:16.200;0;Mov;1;13404;10,18;-0,7883785754341258;-2,0947661709952086;0;-2,0947661709952086;-0,7883785754341258;-0,4569963802186651;18,82992034669027;-21,759697256385998;1,586962492751854
12:09:16.200;0;Mov;1;13405;10,18;-1,1783806878872036;-1,4930143608661153;0;-1,4930143608661153;-1,1783806878872036;-0,3146336431756798;18,82992034669027;-25,177770317697682;1,281777397991882
12:09:16.201;0;Mov;1;13406;9,86;-1,5731681264687032;-1,409271570863979;0;-1,409271570863979;-1,5731681264687032;-0,3014740559289834;20,844141972106083;-25,42191839350566;4,8829615161595505
12:09:16.201;0;Mov;1;13407;9,86;-1,4248237317651906;-1,0946378978850673;0;-1,0946378978850673;-1,4248237317651906;-0,20576799531064027;23,438215277565845;-24,23169652394177;11,41392254402295
12:09:16.201;0;Mov;1;13408;9,86;-0,9331339457380902;-0,8757103302293466;0;-0,8757103302293466;-0,9331339457380902;-0,16270028367908262;25,29984435560167;-21,027253028962065;17,456587420270395
12:09:16.201;0;Mov;1;13409;9,86;-0,5562913907284768;-0,5730399725714896;0;-0,5730399725714896;-0,5562913907284768;-0,15671865582178715;26,825769829401533;-15,686513870662557;20,020142216254158
12:09:16.201;0;Mov;1;13410;9,86;0;-0,9175817252304147;0;-0,9175817252304147;-0,1184362330646115;0,00598162785729545;26,490066225165563;-8,911404766991181;19,196142460402235
12:09:16.209;0;Wrist;1;59725;10,19;7,963939519943846;11,240675641651661;8,699679746391187;11,240675641651661;7,963939519943846;8,699679746391187;36,9579149754326;-205,3285317545091;30,64058351390118
12:09:16.209;0;Wrist;1;59726;10,19;6,680281895657216;9,643581003753777;8,507071710867642;9,643581003753777;6,680281895657216;8,507071710867642;57,5884273812067;-215,88793603320414;44,25183874019593
12:09:16.209;0;Wrist;1;59727;10,19;5,262636093478195;7,978295617542039;8,684127704702902;7,978295617542039;5,262636093478195;8,684127704702902;71,90160832544939;-224,76882229071933;54,322946867275
12:09:16.209;0;Wrist;1;59728;10,19;4,17158745841853;6,347703577532274;9,56103415784173;6,347703577532274;4,17158745841853;9,56103415784173;79,95849482711264;-232,7951902829066;62,013611255226294
12:09:16.209;0;Wrist;1;59729;10,19;3,362871276741844;4,7924803346354565;10,564751693777277;4,7924803346354565;3,362871276741844;10,564751693777277;83,40708639790033;-242,6526688436537;67,75109103671377
12:09:16.210;0;Wrist;1;59730;9,87;2,753941417813654;3,097287047563097;11,237085901974547;3,097287047563097;2,753941417813654;11,237085901974547;83,13241981261635;-255,5314798425245;73,30545976134526
12:09:16.210;0;Wrist;1;59731;9,87;2,075624866481521;1,2944243398464919;10,740610789819025;1,2944243398464919;2,075624866481521;10,740610789819025;81,08767967772454;-269,35636463515124;79,10397656178472
12:09:16.210;0;Wrist;1;59732;9,87;1,9105320091479232;-0,7165990411465804;9,801495216223639;-0,7165990411465804;1,9105320091479232;9,801495216223639;78,2189397869808;-281,4416943876461;83,92590105899228
12:09:16.210;0;Wrist;1;59733;9,87;2,2730185857722707;-2,8412732322153387;8,635077784051028;-2,8412732322153387;2,2730185857722707;8,635077784051028;74,89242225409711;-289,1018402661214;89,60234382152775
12:09:16.210;0;Wrist;1;59734;9,87;3,426276579714347;-5,0329418698690755;6,920743430890835;-5,0329418698690755;3,426276579714347;6,920743430890835;70,74190496536148;-290,8413953062532;98,48323007904294
12:09:16.260;0;Mov;1;13411;9,92;0;-0,7357402264473403;0;-0,7357402264473403;0,3289895321512497;0,18303781541356395;22,73628955961791;-2,9908139286477247;15,655995361186559
12:09:16.260;0;Mov;1;13412;9,92;0;-0,7764153197195349;0;-0,7764153197195349;0,11006195704472106;0,12202521275931195;16,724143192846462;3,7232581560716573;10,162663655507066
12:09:16.260;0;Mov;1;13413;9,92;0;-0,661568029095584;0;-0,661568029095584;-0,10288399765532014;0,236872466129223;12,665181432538835;9,949034089175084;5,4322946867275
12:09:16.260;0;Mov;1;13414;9,92;0;0;0;-0,3900021422563097;-0,4091433573603015;0,3469344157231361;10,681478316599017;19,13510544145024;2,533036286507767
12:09:16.260;0;Mov;1;13415;9,92;-0,7524888082903531;-0,6567827625736259;0,5921811578722496;-0,6567827625736259;-0,7524888082903531;0,5921811578722496;11,719107638782923;32,74636066774499;2,166814172795801
12:09:16.269;0;Wrist;1;59735;9,93;5,1908565591906495;-7,087032589953306;5,182482566301462;-7,087032589953306;5,1908565591906495;5,182482566301462;64,42457350383008;-285,59221167638174;113,0710776085696
12:09:16.269;0;Wrist;1;59736;9,93;6,590557477797784;-8,970048944059572;3,7433028561510056;-8,970048944059572;6,590557477797784;3,7433028561510056;57,37479781487472;-275,73473311563464;134,67818231757562
12:09:16.269;0;Wrist;1;59737;9,93;6,798718508713034;-11,16291447950682;2,6044007213812677;-11,16291447950682;6,798718508713034;2,6044007213812677;52,858058412427134;-261,54362620929595;160,43580431531723
12:09:16.269;0;Wrist;1;59738;9,93;5,13702190847499;-14,044862208929716;2,977654490417188;-14,044862208929716;5,13702190847499;2,977654490417188;56,58131656849879;-246,25385296182134;183,35520493179112
12:09:16.270;0;Wrist;1;59739;9,93;2,9955993739890743;-17,327579958494827;3,8892545281838435;-17,327579958494827;2,9955993739890743;3,8892545281838435;71,6879787591174;-235,51133762627035;197,24112674336985
12:09:16.327;0;Wrist;1;59740;9,98;0,7154026798112431;-20,50143246253853;4,53287749488815;-20,50143246253853;0,7154026798112431;4,53287749488815;83,28501235999634;-230,6283761101108;201,60527359843746
12:09:16.327;0;Wrist;1;59741;9,98;-1,9918820764793848;-23,36663220618305;5,9397564622943815;-23,36663220618305;-1,9918820764793848;5,9397564622943815;82,82723471785638;-223,30393383587145;193,73149815363018
12:09:16.327;0;Wrist;1;59742;9,98;-4,290023594622639;-25,893271050141912;7,4782312425611135;-25,893271050141912;-4,290023594622639;7,4782312425611135;77,76116214484085;-216,83400982696006;171,6971343119602
12:09:16.327;0;Wrist;1;59743;9,98;-6,461354506820887;-28,026320307016206;5,984020699179052;-28,026320307016206;-6,461354506820887;5,984020699179052;73,85479293191321;-210,73030793176062;139,37803277687917
12:09:16.327;0;Wrist;1;59744;9,98;-8,193634220404675;-30,076822717978455;2,913052766502884;-30,076822717978455;-8,193634220404675;2,913052766502884;69,67375713370159;-199,65208899197364;97,99493392742698
12:09:16.351;0;Mov;1;13416;10,17;-0,8003418311487167;-0,5754326356357006;0,6041444135868405;-0,5754326356357006;-0,8003418311487167;0,6041444135868405;14,069032868434705;49,86724448377941;4,425183874019593
12:09:16.351;0;Mov;1;13417;10,17;-0,9857722947248756;0;0,6926725297173986;-0,20337534714804528;-0,9857722947248756;0,6926725297173986;15,472884304330577;65,73686941129795;8,941923276467177
12:09:16.351;0;Mov;1;13418;10,17;-0,8290536090998566;0;1,1652211304437392;0,19380473959604938;-0,8290536090998566;1,1652211304437392;16,235847041230507;80,99612414929655;13,58073671681875
12:09:16.351;0;Mov;1;13419;10,17;-0,7465071804330576;0;0,5610767168568987;0,46776330440115055;-0,7465071804330576;0,5610767168568987;16,20532853175451;102,75582140568255;18,311105685598314
12:09:16.351;0;Mov;1;13420;10,17;0;0,9283486792161321;0;0,9283486792161321;-0,42110661307489244;0,4665669728690451;9,765923032319101;120,21240882595293;24,47584459974975
12:09:16.352;0;Mov;1;13421;9,89;0;0;0,8111087255279702;-0,34813074725524157;-0,236872466129223;0,8111087255279702;7,843256935331278;122,65388958403271;35,46250801110874
12:09:16.352;0;Mov;1;13422;9,89;-1,057551829012421;0;1,3350993139057588;0,18423414694566942;-1,057551829012421;1,3350993139057588;1,098666341135899;134,46455275124362;44,31287575914792
12:09:16.353;0;Mov;1;13423;9,89;-0,9415082366595966;2,300534121601001;3,116428113650929;2,300534121601001;-0,9415082366595966;3,116428113650929;-2,2278511917477952;158,51313821832943;55,29953917050691
12:09:16.353;0;Mov;1;13424;9,89;-0,9199743882946257;2,591241283150731;4,120145172734763;2,591241283150731;-0,9199743882946257;4,120145172734763;0,8850367748039186;207,55638294625692;61,73894466994232
12:09:16.353;0;Mov;1;13425;9,89;-0,9534714923741875;1,9703482877208778;6,202948088015381;1,9703482877208778;-0,9534714923741875;6,202948088015381;0,12207403790398877;276,58925138096254;63,87524033326213
12:09:16.369;0;Wrist;1;59745;9,93;-8,504678868984039;-32,01487014374218;0;-32,01487014374218;-8,504678868984039;0,17585985602416304;62,34931485946226;-176,0002441480758;52,2171697134312
12:09:16.369;0;Wrist;1;59746;9,93;-8,229523987548449;-33,18607135227516;-1,9356548223059786;-33,18607135227516;-8,229523987548449;-1,9356548223059786;49,43998535111545;-141,02603228858302;9,399700918607135
12:09:16.369;0;Wrist;1;59747;9,93;-7,2449477561265905;-33,16693243202002;-3,377227135914182;-33,16693243202002;-7,2449477561265905;-3,377227135914182;34,94369335001679;-100,58900723288674;-26,52058473464156
12:09:16.369;0;Wrist;1;59748;9,93;-5,428925729392376;-32,067506942960904;-4,112967600787377;-32,067506942960904;-5,428925729392376;-4,112967600787377;21,39347514267403;-59,23642689291055;-51,0574663533433
12:09:16.369;0;Wrist;1;59749;9,93;-3,9275368987853634;-30,168939024018066;-4,446742339854121;-30,168939024018066;-3,9275368987853634;-4,446742339854121;12,421033356730858;-18,79940183721427;-59,48057496871853
12:09:16.418;0;Wrist;1;59750;9,93;-2,884341048158208;-27,600426877651294;-4,462294381542406;-27,600426877651294;-2,884341048158208;-4,462294381542406;9,735404522843105;16,907254249702444;-52,858058412427134
12:09:16.418;0;Wrist;1;59751;9,93;-2,459645470290231;-24,402649769585253;-4,861867027039399;-24,402649769585253;-2,459645470290231;-4,861867027039399;7,599108859523301;47,42576372569964;-35,340433973204746
12:09:16.418;0;Wrist;1;59752;9,93;-1,5492416150395214;-26,399317529831844;-14,363085383159886;-26,399317529831844;-1,5492416150395214;-14,363085383159886;-3,326517532883694;89,02249214148381;-15,198217719046601
12:09:16.418;0;Wrist;1;59753;9,93;-11,581628429517503;-21,340056306649984;-9,182995658742026;-21,340056306649984;-11,581628429517503;-9,182995658742026;-54,048280281991026;171,97180089724418;-16,693624683370466
12:09:16.418;0;Wrist;1;59754;9,93;-5,310489116336558;4,659688100833155;18,389917828913237;4,659688100833155;-5,310489116336558;18,389917828913237;-55,66576128421888;133,4879604480117;-34,730063783684805
12:09:16.441;0;Mov;1;13426;10,11;-1,0096988061540575;0;6,458961664937284;0,1292031646979049;-1,0096988061540575;6,458961664937284;-17,700735496078373;362,8040406506546;65,67583239234595
12:09:16.441;0;Mov;1;13427;10,11;-1,8423413800469985;0,5742362743003632;6,546293717764824;0,5742362743003632;-1,8423413800469985;6,546293717764824;-33,53984191412091;440,0463881344035;65,157017731254
12:09:16.441;0;Mov;1;13428;10,11;-1,9942747991500596;2,7192480716116827;7,774920270393994;2,7192480716116827;-1,9942747991500596;7,774920270393994;-28,199102755821407;502,0294808801538;64,2719809564501
12:09:16.441;0;Mov;1;13429;10,11;-0,994146585646382;2,816150538270211;6,822645020142216;2,816150538270211;-0,994146585646382;6,822645020142216;-4,1810357982116155;561,6321298867763;62,532425916318246
12:09:16.441;0;Mov;1;13430;10,11;0;3,2671652310251167;6,908780175176244;3,2671652310251167;-0,15791497245227668;6,908780175176244;5,188146610919523;614,3681142612995;66,07257301553392
12:09:16.508;0;Wrist;1;59755;10,15;1,191540245330668;15,661098628192999;4,883401173436689;15,661098628192999;1,191540245330668;4,883401173436689;-44,49598681600391;120,05981627857295;-50,38605914487137
12:09:16.508;0;Wrist;1;59756;10,15;1,292031617175817;5,471993068483536;-8,928177549058503;5,471993068483536;1,292031617175817;-8,928177549058503;-76,082644123661;192,96853541673025;-79,13449507126072
12:09:16.509;0;Wrist;1;59757;10,15;6,265157208471938;-3,1271951868495744;16,110917615283668;-3,1271951868495744;6,265157208471938;16,110917615283668;-63,41746269112217;299,9664296395764;-69,67375713370159
12:09:16.509;0;Wrist;1;59758;10,15;-1,2489639204458753;-7,85866306039613;25,783209860530413;-7,85866306039613;-1,2489639204458753;25,783209860530413;-50,96591082491531;320,3527939695425;-23,71288186284982
12:09:16.509;0;Wrist;1;59759;10,15;-10,452296708578753;-4,479042844172491;3,6248664815210425;-4,479042844172491;-10,452296708578753;3,6248664815210425;-67,26279488509782;256,2639240699484;-13,48918118839076
12:09:16.510;0;Wrist;1;59760;9,89;0;1,9619739371929075;-3,0243110923337504;1,9619739371929075;0,17227089123107853;-3,0243110923337504;-70,03997924741356;230,5978576006348;-16,693624683370466
12:09:16.510;0;Wrist;1;59761;9,89;7,829950865199744;-0,5215979849200415;1,3446699661626027;-0,5215979849200415;7,829950865199744;1,3446699661626027;-105,4414502395703;248,08496353038117;-3,69273964659566
12:09:16.510;0;Wrist;1;59762;9,89;-2,5720999786370435;-4,298398064363536;10,224994850001526;-4,298398064363536;-2,5720999786370435;10,224994850001526;-120,85329752494889;235,72496719260232;-8,087405011139255
12:09:16.510;0;Wrist;1;59763;9,89;-8,085964918973357;-2,019397612308115;9,249989509262367;-2,019397612308115;-8,085964918973357;9,249989509262367;-78,61568041016876;218,11578722495193;-28,77895443586535
12:09:16.510;0;Wrist;1;59764;9,89;4,690792661061434;-5,087972941526536;5,133433122501297;-5,087972941526536;4,690792661061434;5,133433122501297;-28,839991454817348;200,65919980468155;-38,63643299661245
12:09:16.531;0;Mov;1;13431;10,33;-0,7488998434972686;4,87383028275399;7,664858127079073;4,87383028275399;-0,7488998434972686;7,664858127079073;-12,39051484725486;660,7562486648152;73,21390423291726
12:09:16.531;0;Mov;1;13432;10,33;-1,7693655440305796;5,003033730582598;4,975517956328013;5,003033730582598;-1,7693655440305796;4,975517956328013;-36,68324839014863;705,984679708243;86,30634479812007
12:09:16.531;0;Mov;1;13433;10,33;-5,255458521530809;0,8386242613567003;5,9600941877498705;0,8386242613567003;-5,255458521530809;5,9600941877498705;-67,23227637562181;709,2806787316507;98,60530411694693
12:09:16.531;0;Mov;1;13434;10,33;-3,6787011322367014;-20,50262840662862;29,20470099490341;-20,50262840662862;-3,6787011322367014;29,20470099490341;-151,76854762413404;538,6516922513505;129,1543321024201
12:09:16.531;0;Mov;1;13435;10,33;-10,392480430005799;-1,6545183130130925;36,810937833796196;-1,6545183130130925;-10,392480430005799;36,810937833796196;-122,62337107455672;169,25565355388042;153,84380626850185
12:09:16.532;0;Mov;1;13436;10,05;-15,760393459883419;2,2993377006592;36,57646031067843;2,2993377006592;-15,760393459883419;36,57646031067843;-76,81508835108494;95,09567552720725;123,50840784936064
12:09:16.532;0;Mov;1;13437;10,05;-13,534030999176;5,3834650715659045;30,06246566667684;5,3834650715659045;-13,534030999176;30,06246566667684;-22,522659993285927;12,054811243018891;94,02752769554735
12:09:16.532;0;Mov;1;13438;10,05;-8,852809228797266;5,607178144169438;20,561248741111484;5,607178144169438;-8,852809228797266;20,561248741111484;22,705771050141912;-46,14398632770776;78,92086550492874
12:09:16.532;0;Mov;1;13439;10,05;-6,240034276100955;6,8429822687459945;15,000726722006897;6,8429822687459945;-6,240034276100955;15,000726722006897;21,423993652150028;-68,75820184942168;77,1202734458449
12:09:16.532;0;Mov;1;13440;10,05;-5,759111205633717;7,802435567796869;13,626148258919034;7,802435567796869;-5,759111205633717;13,626148258919034;-5,371257667775506;-81,36234626300852;77,70012512588885
12:09:16.567;0;Wrist;1;59765;9,94;3,6643452730643635;-3,7863704336680195;6,051015026551103;-3,7863704336680195;3,6643452730643635;6,051015026551103;-23,285622730185857;151,61595507675406;-36,255989257484664
12:09:16.567;0;Wrist;1;59766;9,94;-3,987353177358318;-2,4273447275460067;6,144328230384228;-2,4273447275460067;-3,987353177358318;6,144328230384228;-29,66399121066927;103,67137668996246;-31,586657307657095
12:09:16.568;0;Wrist;1;59767;9,94;0,7979491680845058;-0,7441145173688467;1,3997009186071352;-0,7441145173688467;0,7979491680845058;1,3997009186071352;-23,68236335337382;79,53123569444868;-23,316141239661857
12:09:16.568;0;Wrist;1;59768;9,94;-1,0491775976973785;-0,5395428684919279;2,417774075289163;-0,5395428684919279;-1,0491775976973785;2,417774075289163;-25,147251808221686;68,88027588732567;-18,79940183721427
12:09:16.568;0;Wrist;1;59769;9,94;-0,9068147712446974;-0,5562913907284768;1,7897030310602131;-0,5562913907284768;-0,9068147712446974;1,7897030310602131;-25,849177526169623;53,92620624408704;-14,89303262428663
12:09:16.590;0;Mov;1;13441;10,1;-7,005682641834773;7,290407937101352;16,043921857356487;7,290407937101352;-7,005682641834773;16,043921857356487;-32,80739768669698;-91,03671376689962;77,66960661641285
12:09:16.591;0;Mov;1;13442;10,1;-9,172228347117526;6,0701558542130805;19,37449262977996;6,0701558542130805;-9,172228347117526;19,37449262977996;-38,48384044923246;-112,06396679586169;73,09183019501327
12:09:16.591;0;Mov;1;13443;10,1;-10,899722853785821;5,409784424878689;20,101859340189826;5,409784424878689;-10,899722853785821;20,101859340189826;-16,17481002227851;-147,16025269325846;62,532425916318246
12:09:16.591;0;Mov;1;13444;10,1;-10,98705442976165;5,387054334391308;18,44973410748619;5,387054334391308;-10,98705442976165;18,44973410748619;20,99673451948607;-187,78038880581073;48,24976348155156
12:09:16.591;0;Mov;1;13445;10,1;-9,949839968565936;5,291348288674581;16,62653355510117;5,291348288674581;-9,949839968565936;16,62653355510117;49,195837275307476;-226,78304391613514;32,624286629840995
12:09:16.620;0;Mov;1;13446;10;-8,547746208075198;4,876223124637593;14,853578867458113;4,876223124637593;-8,547746208075198;14,853578867458113;50,38605914487137;-263,3442182683798;18,25006866664632
12:09:16.620;0;Mov;1;13447;10;-7,157616180150762;4,382140854365673;11,859175199133274;4,382140854365673;-7,157616180150762;11,859175199133274;29,755546739097262;-296,3957640308847;6,40888698995941
12:09:16.620;0;Mov;1;13448;10;-6,936295949430829;3,577013458662679;8,520230910672323;3,577013458662679;-6,936295949430829;8,520230910672323;3,7537766655476545;-322,15338602862636;-1,6174810022278512
12:09:16.620;0;Mov;1;13449;10;-7,937620166631062;2,7874385814996794;5,116684659871212;2,7874385814996794;-7,937620166631062;5,116684659871212;-12,146366771446882;-340,2203436384167;-7,141331217383343
12:09:16.620;0;Mov;1;13450;10;-9,61606475264748;2,287374444944609;1,1520615730002746;2,287374444944609;-9,61606475264748;1,1520615730002746;-8,02636799218726;-345,40849024933624;-15,137180700094607
12:09:16.650;0;Wrist;1;59770;10,1;0;0;1,1903439436017944;-0,35770133990562153;-0,42110661307489244;1,1903439436017944;-27,1919919431135;41,74932096316416;-12,878810998870815
12:09:16.651;0;Wrist;1;59771;10,1;0;0;0,9462935627880185;0,20337534714804528;-0,4665669728690451;0,9462935627880185;-30,091250343333233;34,08917508468886;-13,031403546250802
12:09:16.651;0;Wrist;1;59772;10,1;-1,2058962237159336;0;1,2537492465742972;0,20576799531064027;-1,2058962237159336;1,2537492465742972;-30,915250099185155;30,51850947599719;-11,688589129306925
12:09:16.651;0;Wrist;1;59773;10,1;-1,2561418500320445;0;1,1604358043153173;0,37923521807382427;-1,2561418500320445;1,1604358043153173;-25,45243690298166;25,849177526169623;-8,514664143803216
12:09:16.651;0;Wrist;1;59774;10,1;-0,8769066319582202;0,9020295047227394;0,9068147712446974;0,9020295047227394;-0,8769066319582202;0,9068147712446974;-21,08829004791406;21,423993652150028;-6,836146122623371
12:09:16.679;0;Mov;1;13451;10,04;-9,619654492324594;1,203503501045259;-0,7297585985900449;1,203503501045259;-9,619654492324594;-0,7297585985900449;7,507553331095309;-336,28345591601305;-24,292733542893764
12:09:16.680;0;Mov;1;13452;10,04;-8,855202070680868;0;0;-0,23806879766132846;-8,855202070680868;-0,06819056204365291;13,91644032105472;-322,8553117465743;-35,8897671437727
12:09:16.680;0;Mov;1;13453;10,04;-8,467592204046754;-1,9452254745628224;2,3866695150608845;-1,9452254745628224;-8,467592204046754;2,3866695150608845;-2,4719992675557725;-316,81264687032683;-49,25687429425947
12:09:16.680;0;Mov;1;13454;10,04;-8,922195921201208;-3,911984618671224;4,52211066011536;-3,911984618671224;-8,922195921201208;4,52211066011536;-29,755546739097262;-322,97738578447826;-65,37064729758599
12:09:16.680;0;Mov;1;13455;10,04;-9,757231933042391;-5,335612048707541;3,525571411404767;-5,335612048707541;-9,757231933042391;3,525571411404767;-48,03613391521958;-334,08612323374126;-82,73567918942838
12:09:16.718;0;Wrist;1;59775;10,18;-0,5263832514419996;1,015680434011353;0,7357402264473403;1,015680434011353;-0,5263832514419996;0,7357402264473403;-17,853328043458358;19,98962370677816;-7,72118289742729
12:09:16.718;0;Wrist;1;59776;10,18;0;0,8481948540070803;0,6196966340945158;0,8481948540070803;-0,13757744071779535;0,6196966340945158;-16,235847041230507;20,355845820490128;-10,040589617603077
12:09:16.718;0;Wrist;1;59777;10,18;0;0;0,6687460182882168;0,3612903345019379;0,07656483806354335;0,6687460182882168;-17,27347636341441;20,142216254158146;-13,061922055726798
12:09:16.718;0;Wrist;1;59778;10,18;0;0;0,6914761683820613;0,4378551651146733;-0,0478530228583636;0,6914761683820613;-19,89806817835017;16,602069154942473;-15,86962492751854
12:09:16.718;0;Wrist;1;59779;10,18;-0,6208929954298532;0,9558641554383984;0,6771203092097232;0,9558641554383984;-0,6208929954298532;0,6771203092097232;-22,91940061647389;12,17688528092288;-16,815698721274455
12:09:16.719;0;Wrist;1;59780;9,94;0;1,0754967125843073;0,6125187045083468;1,0754967125843073;-0,4581927117507706;0,6125187045083468;-24,048585467085786;11,169774468214973;-16,724143192846462
12:09:16.719;0;Wrist;1;59781;9,94;-0,7572740748123111;1,057551829012421;0,8577654466574602;1,057551829012421;-0,7572740748123111;0,8577654466574602;-23,773918881801812;10,559404278695029;-17,09036530655843
12:09:16.719;0;Wrist;1;59782;9,94;-0,5132236939985351;1,162828526985992;0,8697287023720511;1,162828526985992;-0,5132236939985351;0,8697287023720511;-23,46873378704184;10,925626392406995;-16,663106173894466
12:09:16.719;0;Wrist;1;59783;9,94;-1,8208075912884916;1,062337155140843;1,5516343377101962;1,062337155140843;-1,8208075912884916;1,5516343377101962;-24,65895565660573;10,864589373455;-10,895107882930997
12:09:16.719;0;Wrist;1;59784;9,94;-1,5133518478957488;1,6916043818857387;2,42016667874691;1,6916043818857387;-1,5133518478957488;2,42016667874691;-21,97332682271798;16,602069154942473;-2,1362956633198036
12:09:16.741;0;Mov;1;13456;10,09;-8,881521423993652;-6,052210970641194;0,830249970435194;-6,052210970641194;-8,881521423993652;0,830249970435194;-52,308725241859186;-339,70152897732476;-97,32352671895505
12:09:16.741;0;Mov;1;13457;10,09;-7,009271427808466;-6,608502361369671;0;-6,608502361369671;-7,009271427808466;-0,0945097216354297;-56,42872402111881;-338,35871456038086;-105,96026490066225
12:09:16.741;0;Mov;1;13458;10,09;-7,360991527298807;-7,462679200872829;1,006109781754509;-7,462679200872829;-7,360991527298807;1,006109781754509;-71,13864558854945;-333,8724936674093;-108,73744926297799
12:09:16.741;0;Mov;1;13459;10,09;-9,247596667378765;-8,235505615405744;1,3913266872920926;-8,235505615405744;-9,247596667378765;1,3913266872920926;-82,18634601886043;-331,5225684377575;-112,76589251380963
12:09:16.742;0;Mov;1;13460;10,09;-9,089681501205481;-8,391027939695425;0;-8,391027939695425;-9,089681501205481;0,2871181371501816;-84,8414563432722;-331,18686483352155;-121,09744560075686
12:09:16.801;0;Mov;1;13461;10,14;-7,620593890194403;-8,630293053987243;-1,0719076881847591;-8,630293053987243;-7,620593890194403;-1,0719076881847591;-95,46189764091922;-327,64671773430587;-130,314035462508
12:09:16.801;0;Mov;1;13462;10,14;-6,156291486098819;-9,216492584002197;-1,1508652712714011;-9,216492584002197;-6,156291486098819;-1,1508652712714011;-118,13715018158513;-318,82686849574264;-137,45536667989134
12:09:16.802;0;Mov;1;13463;10,14;-5,117881080813013;-10,66883125553148;1,17718438615833;-10,66883125553148;-5,117881080813013;1,17718438615833;-142,46040223395488;-308,4810937833796;-140,2630695516831
12:09:16.802;0;Mov;1;13464;10,14;-3,8653280167546615;-12,74326017792291;5,267421777245399;-12,74326017792291;-3,8653280167546615;5,267421777245399;-161,53447065645315;-304,391613513596;-141,81951353495896
12:09:16.802;0;Mov;1;13465;10,14;-2,844862256614887;-15,449348811304056;8,900662251655628;-15,449348811304056;-2,844862256614887;8,900662251655628;-178,93002105777154;-308,4200567644276;-146,30573442793053
12:09:16.829;0;Mov;1;13466;10,03;-1,0479811767555773;-18,532279045991395;9,537107646412549;-18,532279045991395;-1,0479811767555773;9,537107646412549;-190,0692770165105;-316,4464247566149;-154,85091708120976
12:09:16.830;0;Mov;1;13467;10,03;2,512283700064089;-21,42738692892239;8,02255985442671;-21,42738692892239;2,512283700064089;8,02255985442671;-191,5341654713584;-322,12286751915036;-161,83965575121312
12:09:16.830;0;Mov;1;13468;10,03;6,872890408032472;-24,055715353862116;6,2555863177892395;-24,055715353862116;6,872890408032472;6,2555863177892395;-189,0316476943266;-319,5898312326426;-160,16113773003326
12:09:16.830;0;Mov;1;13469;10,03;11,366289826654866;-26,885025330362865;5,7196326525162515;-26,885025330362865;11,366289826654866;5,7196326525162515;-187,50572222052676;-310,7699819940794;-146,03106784264656
12:09:16.830;0;Mov;1;13470;10,03;14,993549150059511;-29,883016830957978;6,114420091097751;-29,883016830957978;14,993549150059511;6,114420091097751;-183,8129825739311;-297,7996154667806;-119,84618671224098
12:09:16.838;0;Wrist;1;59785;10,27;-2,1581714739677116;1,6640888460570087;3,5973509456923125;1,6640888460570087;-2,1581714739677116;3,5973509456923125;-12,115848261970886;38,758507034516434;2,4719992675557725
12:09:16.838;0;Wrist;1;59786;10,27;-1,9212989631336406;1,8650715897473067;5,3009187025055695;1,8650715897473067;-1,9212989631336406;5,3009187025055695;3,448591570787683;83,74279000213629;1,2512588885158848
12:09:16.838;0;Wrist;1;59787;10,27;-1,5468490115817743;3,0362743480483414;2,7276223029267253;3,0362743480483414;-1,5468490115817743;2,7276223029267253;37,47672963652455;161,07669301431318;-4,058961760307627
12:09:16.839;0;Wrist;1;59788;10,27;-1,9990601252784814;4,920487361522263;1,4595171971800898;4,920487361522263;-1,9990601252784814;1,4595171971800898;69,67375713370159;192,2055726798303;-21,546067690054016
12:09:16.839;0;Wrist;1;59789;10,27;-1,2764794562746056;4,41204899365215;1,8662678914761803;4,41204899365215;-1,2764794562746056;1,8662678914761803;83,46812341685232;179,3572801904355;-36,9579149754326
12:09:16.840;0;Wrist;1;59790;10,04;-2,9872249042481767;10,698739394817958;6,359666833246864;10,698739394817958;-2,9872249042481767;6,359666833246864;94,75997192297129;206,701864680929;-36,37806329538866
12:09:16.840;0;Wrist;1;59791;10,04;-2,5098910966063417;7,963939519943846;9,442597544785913;7,963939519943846;-2,5098910966063417;9,442597544785913;144,53566087832272;292,67250587481306;-45,89983825189978
12:09:16.840;0;Wrist;1;59792;10,04;0,9139927604373302;3,2791284867397077;8,456825846125675;3,2791284867397077;0,9139927604373302;8,456825846125675;196,96646015808588;398,7853633228553;-71,90160832544939
12:09:16.840;0;Wrist;1;59793;10,04;0,5658619833788567;6,2866908780175175;9,513181134983368;6,2866908780175175;0,5658619833788567;9,513181134983368;224,46363719595934;528,5195471053194;-93,75286111026338
12:09:16.840;0;Wrist;1;59794;10,04;-1,7430464291436507;6,281905671102024;6,183806783501693;6,281905671102024;-1,7430464291436507;6,183806783501693;208,62453077791682;641,4685506759849;-101,32145146031068
12:09:16.864;0;Mov;1;13471;9,96;17,302457502975553;-32,69438383129368;4,5520187994018375;-32,69438383129368;17,302457502975553;4,5520187994018375;-170,23224585711233;-277,5048066652425;-84,26160466322825
12:09:16.864;0;Mov;1;13472;9,96;17,87549783318583;-34,65755180516984;1,1077974553285317;-34,65755180516984;17,87549783318583;1,1077974553285317;-137,39432966093935;-246,4980010376293;-40,98635822626423
12:09:16.864;0;Mov;1;13473;9,96;16,02119319742424;-35,86584063234351;-2,820935745185705;-35,86584063234351;16,02119319742424;-2,820935745185705;-87,80175176244393;-206,97653126621296;2,563554795983764
12:09:16.864;0;Mov;1;13474;9,96;12,307797288430432;-36,044095431379134;-7,439949110385449;-36,044095431379134;12,307797288430432;-7,439949110385449;-35,493026520584735;-160,55787835322124;32,013916440321054
12:09:16.865;0;Mov;1;13475;9,96;8,33001476332896;-36,056058687093724;-9,806280899990844;-36,056058687093724;8,33001476332896;-9,806280899990844;2,0142216254158147;-108,09656056398205;40,98635822626423
12:09:16.900;0;Wrist;1;59795;10,09;-3,471736760689108;4,0722921498764;5,76270046845912;4,0722921498764;-3,471736760689108;5,76270046845912;213,78215887936034;690,2066103091526;-114,41389202551348
12:09:16.900;0;Wrist;1;59796;10,09;-3,3879939706869715;-1,2872462910473952;8,797778633991516;-1,2872462910473952;-3,3879939706869715;8,797778633991516;229,5602282784509;727,896969512009;-144,87136448255868
12:09:16.901;0;Wrist;1;59797;10,09;-7,51771027253029;-7,021234683523057;12,043409718619342;-7,021234683523057;-7,51771027253029;12,043409718619342;256,14185003204443;705,0996429334391;-175,78661458174383
12:09:16.901;0;Wrist;1;59798;10,09;4,67524061937315;-18,271481215857417;32,819998016296886;-18,271481215857417;4,67524061937315;32,819998016296886;163,18247016815698;492,1109653004547;-230,5063020722068
12:09:16.901;0;Wrist;1;59799;10,09;4,200299176763207;9,704593226416822;36,49032181768242;9,704593226416822;4,200299176763207;36,49032181768242;31,86132389294107;157,29239783928952;-206,305124057741
12:09:16.927;0;Wrist;1;59800;9,98;5,5928220465712455;11,611536568803979;30,673787652211065;11,611536568803979;5,5928220465712455;30,673787652211065;26,947843867305522;105,62456129642628;-188,1466109195227
12:09:16.927;0;Wrist;1;59801;9,98;3,498056114001892;15,725699636829738;19,5730822931608;15,725699636829738;3,498056114001892;19,5730822931608;-18,25006866664632;59,877315591906495;-169,13357951597644
12:09:16.927;0;Wrist;1;59802;9,98;2,1450117973113194;18,200897625659962;16,328648106326487;18,200897625659962;2,1450117973113194;16,328648106326487;-41,13895077364422;28,351695303201392;-163,090914639729
12:09:16.927;0;Wrist;1;59803;9,98;3,3712455080568864;19,00961333048494;17,821663182470168;19,00961333048494;3,3712455080568864;17,821663182470168;-28,290658284249396;8,362071596423231;-163,36558122501296
12:09:16.927;0;Wrist;1;59804;9,98;5,8572100932340465;18,300193411053804;19,58026177251503;18,300193411053804;5,8572100932340465;19,58026177251503;-0,4882961516159551;-19,623401593066195;-160,16113773003326
12:09:16.960;0;Wrist;1;59805;9,91;7,898141613513596;17,461567659535508;18,453321939756464;17,461567659535508;7,898141613513596;18,453321939756464;19,531846064638202;-57,771538438062684;-147,37388225959043
12:09:16.960;0;Wrist;1;59806;9,91;9,01192033906064;16,476992858668783;14,860756439405499;16,476992858668783;9,01192033906064;14,860756439405499;17,3955504013184;-93,08145390179143;-128,94070253608814
12:09:16.960;0;Wrist;1;59807;9,91;8,697286904507584;15,049775688955352;11,953685300759911;15,049775688955352;8,697286904507584;11,953685300759911;-3,051850947599719;-118,41181676686911;-111,02633747367778
12:09:16.960;0;Wrist;1;59808;9,91;8,45084421826838;13,386883144627216;11,662978377636037;13,386883144627216;8,45084421826838;11,662978377636037;-24,56740012817774;-137,30277413251136;-97,44560075685904
12:09:16.960;0;Wrist;1;59809;9,91;9,802692114017152;11,476351016266365;12,483657338175604;11,476351016266365;9,802692114017152;12,483657338175604;-36,65272988067263;-152,073732718894;-84,6583452864162
12:09:16.983;0;Mov;1;13476;10,27;5,3834650715659045;-35,00807596057009;-10,398462057863094;-35,00807596057009;5,3834650715659045;-10,398462057863094;17,334513382366406;-63,142796105838194;31,922360911893062
12:09:16.983;0;Mov;1;13477;10,27;4,727878849147007;-33,10113452558977;-12,25874832148198;-33,10113452558977;4,727878849147007;-12,25874832148198;8,941923276467177;-25,940733054597615;9,521774956511123
12:09:16.984;0;Mov;1;13478;10,27;5,330826841792047;-30,45605716116825;-12,444178785058138;-30,45605716116825;5,330826841792047;-12,444178785058138;-9,735404522843105;8,606219672231209;-14,801477095858639
12:09:16.984;0;Mov;1;13479;10,27;6,771202734458449;-27,66981452375866;-9,900791001617481;-27,66981452375866;6,771202734458449;-9,900791001617481;-19,043549913022247;43,15317239906003;-37,11050752281258
12:09:16.984;0;Mov;1;13480;10,27;10,910489211706901;-24,093997009186072;-9,027473334452345;-24,093997009186072;10,910489211706901;-9,027473334452345;-15,350810266426588;73,06131168553728;-50,0198370311594
12:09:17.011;0;Mov;1;13481;10,17;14,559282204657125;-19,720231101413006;-9,984533791619617;-19,720231101413006;14,559282204657125;-9,984533791619617;-13,733329264198737;100,92471083712272;-45,625171666615806
12:09:17.011;0;Mov;1;13482;10,17;15,250759147923215;-15,528305917538987;-9,039436590166936;-15,528305917538987;15,250759147923215;-9,039436590166936;-12,909329508346813;129,12381359294412;-22,91940061647389
12:09:17.011;0;Mov;1;13483;10,17;10,885366756187628;-9,138731421857356;-16,668404950102236;-9,138731421857356;10,885366756187628;-16,668404950102236;19,165623950926236;179,2352061525315;9,369182409131138
12:09:17.011;0;Mov;1;13484;10,17;14,196795747245705;5,098739776299325;-1,292031617175817;5,098739776299325;14,196795747245705;-1,292031617175817;96,86574907681509;177,98394726401563;85,20767845698415
12:09:17.011;0;Mov;1;13485;10,17;0;12,20491367076632;2,4775903538621176;12,20491367076632;-0,058619954491657;2,4775903538621176;129,64262825403608;211,09653004547258;176,27491073335977
12:09:17.012;0;Mov;1;13486;9,96;-15,956591235084078;-8,295321893978699;17,7690244758446;-8,295321893978699;-15,956591235084078;17,7690244758446;190,34394360179448;379,5281838435011;203,49742118594926
12:09:17.012;0;Mov;1;13487;9,96;-35,61222037415693;-31,19299333170568;22,263618884853663;-31,19299333170568;-35,61222037415693;22,263618884853663;465,3462324900052;468,88637958922084;41,169469283120215
12:09:17.012;0;Mov;1;13488;9,96;20,036061433759574;-1,9416364501632741;10,855458616901151;-1,9416364501632741;20,036061433759574;10,855458616901151;533,9518417920468;374,8283333841975;-19,226660969878232
12:09:17.012;0;Mov;1;13489;9,96;31,833027512436292;-3,4406324388866847;8,983209097567675;-3,4406324388866847;31,833027512436292;8,983209097567675;162,66365550706504;357,0055238502152;80,69093905453657
12:09:17.012;0;Mov;1;13490;9,96;-22,151163899655142;-25,386028626361888;0;-25,386028626361888;-22,151163899655142;0,40435806103511157;61,89153721732231;266,73177282021544;35,55406353953673
12:09:17.072;0;Mov;1;13491;10;11,7000640888699;1,8279855208746605;0;1,8279855208746605;11,7000640888699;0,18423414694566942;53,77361369670705;79,77538377025667;40,37598803674429
12:09:17.072;0;Mov;1;13492;10;-0,5826105652218696;-4,87383028275399;3,5016448999755854;-4,87383028275399;-0,5826105652218696;3,5016448999755854;29,847102267525255;74,28205206457717;24,933622241889704
12:09:17.072;0;Mov;1;13493;10;1,8985687534333324;-3,469344157231361;2,0134159844508193;-3,469344157231361;1,8985687534333324;2,0134159844508193;8,209479049043244;56,06250190740684;17,09036530655843
12:09:17.072;0;Mov;1;13494;10;-0,9750053407391583;-1,597094637897885;0,6472121699232459;-1,597094637897885;-0,9750053407391583;0,6472121699232459;-0,5188146610919523;40,37598803674429;8,178960539567248
12:09:17.072;0;Mov;1;13495;10;-0,6771203092097232;-2,391454960402234;1,1939329680013429;-2,391454960402234;-0,6771203092097232;1,1939329680013429;1,4954069643238623;33,082064271980954;10,956144901882992
12:09:17.078;0;Wrist;1;59810;10,2;13,066268082216865;10,156804101687674;14,767443235572374;10,156804101687674;13,066268082216865;14,767443235572374;-51,17954039124729;-163,51817377239297;-67,72057252723776
12:09:17.078;0;Wrist;1;59811;10,2;16,70429471724601;10,366161076693015;16,90049249244667;10,366161076693015;16,70429471724601;16,90049249244667;-80,08056886501663;-171,63609729300822;-41,44413586840419
12:09:17.078;0;Wrist;1;59812;10,2;17,115831095309304;9,821832941679128;15,281863231299784;9,821832941679128;17,115831095309304;15,281863231299784;-120,48707541123692;-179,72350230414747;-4,089480269783624
12:09:17.078;0;Wrist;1;59813;10,2;14,524589335306864;7,512924588763084;11,322025589770195;7,512924588763084;14,524589335306864;11,322025589770195;-145,7869197668386;-192,69386883144628;32,95999023407697
12:09:17.078;0;Wrist;1;59814;10,2;12,495620593890195;5,920615157780694;6,040247714926603;5,920615157780694;12,495620593890195;6,040247714926603;-137,42484817041534;-201,42216254158146;59,17538987395856
12:09:17.079;0;Wrist;1;59815;9,99;11,29331339457381;5,824909112063967;3,0422559759056367;5,824909112063967;11,29331339457381;3,0422559759056367;-105,22782067323831;-203,1617175817133;72,38990447706534
12:09:17.079;0;Wrist;1;59816;9,99;11,290920552690206;5,138218329416791;3,2360606707968382;5,138218329416791;11,290920552690206;3,2360606707968382;-56,64235358745079;-202,2156437879574;85,51286355174413
12:09:17.079;0;Wrist;1;59817;9,99;11,794574190496537;4,8439221434675135;5,512668519394513;4,8439221434675135;11,794574190496537;5,512668519394513;-15,472884304330577;-203,07016205328532;104,28174687948241
12:09:17.080;0;Wrist;1;59818;9,99;11,71202734458449;4,729075270088809;8,949712172307505;4,729075270088809;11,71202734458449;8,949712172307505;3,8758507034516434;-214,88082522049623;123,53892635883663
12:09:17.080;0;Wrist;1;59819;9,99;9,413886303292948;3,873702248069704;9,685452398754844;3,873702248069704;9,413886303292948;9,685452398754844;9,857478560747094;-239,143040253914;142,46040223395488
12:09:17.100;0;Mov;1;13496;9,92;-0,8792992950224311;-2,2227729594561603;0,9163854235015412;-2,2227729594561603;-0,8792992950224311;0,9163854235015412;4,943998535111545;27,466658528397474;11,139255958738975
12:09:17.102;0;Mov;1;13497;9,92;-1,1676137339014863;-1,6832301505706961;0,5060457048059023;-1,6832301505706961;-1,1676137339014863;0,5060457048059023;10,52888576921903;22,431104464857935;9,002960295419172
12:09:17.102;0;Mov;1;13498;9,92;-1,0001281538972138;-1,3183508512756736;0;-1,3183508512756736;-1,0001281538972138;0,473744932258446;16,479995117038484;19,318216498306224;6,74459059419538
12:09:17.102;0;Mov;1;13499;9,92;-1,5456527098529007;-1,0168767357402264;0,7022431223677785;-1,0168767357402264;-1,5456527098529007;0,7022431223677785;18,616290780358288;20,32532731101413;5,890072328867458
12:09:17.102;0;Mov;1;13500;9,92;-1,5312967314676351;-1,08387094389935;0,6747276461455123;-1,08387094389935;-1,5312967314676351;0,6747276461455123;22,553178502761924;24,811548203985716;8,819849238563188
12:09:17.122;0;Wrist;1;59820;9,96;4,895364429151281;2,6091861667226173;7,168383014923551;2,6091861667226173;4,895364429151281;7,168383014923551;17,242957853938414;-267,03695791497546;151,0055848872341
12:09:17.122;0;Wrist;1;59821;9,96;0,8158940516563921;1,592309311769463;5,482760380108036;1,592309311769463;0,8158940516563921;5,482760380108036;33,26517532883694;-291,3602099673452;140,29358806115908
12:09:17.122;0;Wrist;1;59822;9,96;0;0,900833143387402;6,347703577532274;0,900833143387402;-0,33257852674756616;6,347703577532274;51,85094759971923;-309,6407971434675;113,92559587389752
12:09:17.122;0;Wrist;1;59823;9,96;0,8625507727858821;0;7,948387478255562;0,004785302378971459;0,8625507727858821;7,948387478255562;56,09302041688284;-326,57856990264594;83,55967894528031
12:09:17.122;0;Wrist;1;59824;9,96;1,7119418689153723;-1,0192694584109012;8,149369983520005;-1,0192694584109012;1,7119418689153723;8,149369983520005;41,871395001068144;-343,11960203863646;56,18457594531083
12:09:17.160;0;Mov;1;13501;9,95;-0,8852809228797266;-1,4391797101504562;0,9714163759460738;-1,4391797101504562;-0,8852809228797266;0,9714163759460738;26,21539963988159;31,586657307657095;11,719107638782923
12:09:17.160;0;Mov;1;13502;9,95;-0,5455244963492233;-1,2405896891308328;1,1867550384151737;-1,2405896891308328;-0,5455244963492233;1,1867550384151737;30,579546494949188;37,47672963652455;12,878810998870815
12:09:17.160;0;Mov;1;13503;9,95;0;-1,5743644281975768;1,3937192907498397;-1,5743644281975768;-0,1914120914334544;1,3937192907498397;32,776879177220984;45,28946806237983;14,89303262428663
12:09:17.160;0;Mov;1;13504;9,95;2,2813928170873137;0;1,7203162194433423;0,10527665326872311;2,2813928170873137;1,7203162194433423;30,060731833857233;49,195837275307476;11,07821893978698
12:09:17.160;0;Mov;1;13505;9,95;0;0;1,2118778515732291;0,16389660030957212;0,473744932258446;1,2118778515732291;20,661030915250098;67,20175786614581;-1,6785180211798456
12:09:17.168;0;Wrist;1;59825;9,95;1,8172185668889431;-1,9847041468932158;7,6277719389935;-1,9847041468932158;1,8172185668889431;7,6277719389935;26,825769829401533;-357,6464125492111;32,16650898770104
12:09:17.168;0;Wrist;1;59826;9,95;2,911856583986938;-3,2276864394817957;7,261696218756676;-3,2276864394817957;2,911856583986938;7,261696218756676;28,504287850581377;-367,83959471419416;12,421033356730858
12:09:17.168;0;Wrist;1;59827;9,95;5,370305394909512;-4,578338152714622;6,510403950621051;-4,578338152714622;5,370305394909512;6,510403950621051;42,695394756920074;-373,0887783440657;0,9155552842799157
12:09:17.168;0;Wrist;1;59828;9,95;7,81439882351146;-6,043836977752006;5,414569631794183;-6,043836977752006;7,81439882351146;5,414569631794183;54,68916898098697;-373,2718894009217;3,8758507034516434
12:09:17.168;0;Wrist;1;59829;9,95;8,04409352397229;-6,905191389202551;5,615552137058626;-6,905191389202551;8,04409352397229;5,615552137058626;65,49272133548997;-371,1050752281259;21,362956633198035
12:09:17.190;0;Mov;1;13506;9,77;1,30878019901883;2,1186926824243906;2,136637565996277;2,1186926824243906;1,30878019901883;2,136637565996277;-2,563554795983764;95,85863826410719;0,3051850947599719
12:09:17.190;0;Mov;1;13507;9,77;0;1,5540269411679433;2,1569750530259104;1,5540269411679433;0,32061527103297527;2,1569750530259104;-9,765923032319101;133,30484939115573;0,12207403790398877
12:09:17.190;0;Mov;1;13508;9,77;-1,4032899430066836;1,2023071993163854;0;1,2023071993163854;-1,4032899430066836;0,3170262764366588;-12,573625904110843;164,73891415143285;5,1576281014435255
12:09:17.190;0;Mov;1;13509;9,77;-1,650929288613544;1,8937834273049103;1,1807734105578784;1,8937834273049103;-1,650929288613544;1,1807734105578784;-23,194067201757868;170,6900234992523;22,73628955961791
12:09:17.191;0;Mov;1;13510;9,77;-1,577953452597125;3,7959410859248632;5,281777397991882;3,7959410859248632;-1,577953452597125;5,281777397991882;-17,27347636341441;194,6470534379101;32,07495345927305
12:09:17.228;0;Wrist;1;59830;9,91;7,4818205053865166;-8,270198484756005;8,024951742606891;-8,270198484756005;7,4818205053865166;8,024951742606891;86,09271523178808;-367,3207800531022;45,6556901760918
12:09:17.228;0;Wrist;1;59831;9,91;5,828498374889371;-10,09698782311472;10,366161076693015;-10,09698782311472;5,828498374889371;10,366161076693015;118,4728537858211;-369,762260811182;74,37360759300516
12:09:17.228;0;Wrist;1;59832;9,91;3,7672293675801876;-12,56740012817774;11,083956419568468;-12,56740012817774;3,7672293675801876;11,083956419568468;155,03402813806574;-374,0653706472976;104,67848750267036
12:09:17.228;0;Wrist;1;59833;9,91;2,243110446485794;-15,840547463911863;12,1056188390759;-15,840547463911863;2,243110446485794;12,1056188390759;184,51490829187904;-370,5862605670339;136,17358928189947
12:09:17.228;0;Wrist;1;59834;9,91;0;-20,201153218176824;13,437129009369182;-20,201153218176824;0,23208716980403302;13,437129009369182;187,9329813531907;-361,9190038758507;166,84469130527665
12:09:17.257;0;Wrist;1;59835;9,83;-4,729075270088809;-24,93860248115482;12,28267483291116;-24,93860248115482;-4,729075270088809;12,28267483291116;166,02069154942473;-352,0920438245796;188,87905514694663
12:09:17.257;0;Wrist;1;59836;9,83;-11,13898796807764;-29,49181913205359;8,888698995941038;-29,49181913205359;-11,13898796807764;8,888698995941038;142,91817987609485;-336,680196539201;192,2971282082583
12:09:17.257;0;Wrist;1;59837;9,83;-14,028114223151341;-32,67284920804468;4,034010017700735;-32,67284920804468;-14,028114223151341;4,034010017700735;123,14218573564867;-305,00198370311597;173,22305978576006
12:09:17.257;0;Wrist;1;59838;9,83;-11,691689619129003;-35,371757408368175;0;-35,371757408368175;-11,691689619129003;-0,36846829389133884;79,07345805230872;-251,41148106326486;138,88973662526323
12:09:17.258;0;Wrist;1;59839;9,83;-6,535526882992035;-38,08024079103976;-2,9872249042481767;-38,08024079103976;-6,535526882992035;-2,9872249042481767;15,747550889614551;-186,71224097415083;107,39463484603412
12:09:17.285;0;Mov;1;13511;9,85;-1,4056825464644307;4,784105864894559;8,576458403271584;4,784105864894559;-1,4056825464644307;8,576458403271584;-26,52058473464156;266,2434766685995;32,013916440321054
12:09:17.285;0;Mov;1;13512;9,85;-1,2334116403317361;1,0910489926984466;7,863448267311624;1,0910489926984466;-1,2334116403317361;7,863448267311624;-36,561174352244635;370,76937162388987;35,9202856532487
12:09:17.285;0;Mov;1;13513;9,85;-2,0385389168218024;0,9821833299317911;8,737962355418562;0,9821833299317911;-2,0385389168218024;8,737962355418562;-26,795251319925534;462,9963072603534;38,81954405346843
12:09:17.285;0;Mov;1;13514;9,85;-1,5001922904522844;2,6271310502945036;8,851613284707176;2,6271310502945036;-1,5001922904522844;8,851613284707176;-2,2278511917477952;530,5642872402112;42,146061586352126
12:09:17.285;0;Mov;1;13515;9,85;-1,707156661999878;3,405938854258858;6,80589608066042;3,405938854258858;-1,707156661999878;6,80589608066042;13,672292245246743;577,6848658711508;45,564134647663806
12:09:17.318;0;Wrist;1;59840;9,96;-1,967955565050203;-39,201197088534194;-5,792608607745597;-39,201197088534194;-1,967955565050203;-5,792608607745597;-26,581621753593556;-128,2998138370922;93,75286111026338
12:09:17.318;0;Wrist;1;59841;9,96;-0,9594531202314829;-39,201197088534194;-9,455757698294015;-39,201197088534194;-0,9594531202314829;-9,455757698294015;-29,328287606433303;-82,36945707571643;94,69893490401928
12:09:17.318;0;Wrist;1;59842;9,96;-2,674984073152867;-39,201197088534194;-9,622046380504775;-39,201197088534194;-2,674984073152867;-9,622046380504775;2,4414807580797753;-50,23346659749138;92,80678731650747
12:09:17.318;0;Wrist;1;59843;9,96;-2,500320444349498;-39,201197088534194;-9,437812814722129;-39,201197088534194;-2,500320444349498;-9,437812814722129;40,803247169408245;-14,648884548478652;84,01745658742027
12:09:17.318;0;Wrist;1;59844;9,96;-4,348643452253792;-36,240291299172945;-8,1661189230018;-36,240291299172945;-4,348643452253792;-8,1661189230018;43,33628345591601;20,355845820490128;72,57301553392132
12:09:17.370;0;Mov;1;13516;10,19;0;2,4117924474318673;4,307968478194525;2,4117924474318673;0,0466566987770661;4,307968478194525;20,41688283944212;608,905301065096;54,26190984832301
12:09:17.370;0;Mov;1;13517;10,19;0;3,0422559759056367;4,008887085329753;3,0422559759056367;-0,17346720786156805;4,008887085329753;8,423108615375225;614,9479659413435;61,79998168889431
12:09:17.370;0;Mov;1;13518;10,19;0;-2,371117234946745;7,943601794488357;-2,371117234946745;-0,14954069643238624;7,943601794488357;-27,80236213263344;580,1263466292306;72,23731192968535
12:09:17.370;0;Mov;1;13519;10,19;4,970732749412519;-10,874599444563128;31,483701208532974;-10,874599444563128;4,970732749412519;31,483701208532974;-98,9410077211829;369,54863124485;159,15402691732535
12:09:17.370;0;Mov;1;13520;10,19;-0,9714163759460738;5,528220561082796;35,11335337382122;5,528220561082796;-0,9714163759460738;35,11335337382122;-94,5463423566393;161,07669301431318;199,77416302987763
12:09:17.371;0;Mov;1;13521;9,84;-8,660201193273721;8,492715613269448;27,729630802331613;8,492715613269448;-8,660201193273721;27,729630802331613;-84,47523422956023;118,96114993743706;207,12912381359294
12:09:17.371;0;Mov;1;13522;9,84;-9,126768166142766;10,068276581621754;18,28224852748192;10,068276581621754;-9,126768166142766;18,28224852748192;-40,16235847041231;57,28324228644673;211,61534470656454
12:09:17.371;0;Mov;1;13523;9,84;-8,300106624042481;10,826746421704764;13,091390537736137;10,826746421704764;-8,300106624042481;13,091390537736137;-16,937772759178443;28,748435926389355;203,98571733756523
12:09:17.371;0;Mov;1;13524;9,84;-8,749925611133152;10,71309549241615;10,899722853785821;10,71309549241615;-8,749925611133152;10,899722853785821;-27,71080660420545;22,370067445905942;189,97772148808252
12:09:17.371;0;Mov;1;13525;9,84;-10,36137634662923;9,82302983947264;11,914206747642446;9,82302983947264;-10,36137634662923;11,914206747642446;-42,78695028534806;13,91644032105472;174,16913357951597
12:09:17.382;0;Wrist;1;59845;9,74;-7,152830496383556;-31,972998748741112;-5,5102756775109105;-31,972998748741112;-7,152830496383556;-5,5102756775109105;33,082064271980954;49,501022370067446;56,12353892635883
12:09:17.382;0;Wrist;1;59846;9,74;-8,060841509750663;-26,87904370250557;-4,937235824152348;-26,87904370250557;-8,060841509750663;-4,937235824152348;28,534806360057374;72,14575640125736;31,86132389294107
12:09:17.382;0;Wrist;1;59847;9,74;-8,443665692617573;-28,726170766319772;-26,925700781273843;-28,726170766319772;-8,443665692617573;-26,925700781273843;6,683553575243385;143,6201055940428;-7,629627368999298
12:09:17.382;0;Wrist;1;59848;9,74;-14,771032021546068;-17,80252044740135;-15,391925374614704;-17,80252044740135;-14,771032021546068;-15,391925374614704;-76,052125614185;246,19281594286934;-82,43049409466842
12:09:17.382;0;Wrist;1;59849;9,74;-5,7028841898861655;12,822217284157842;18,919888912625506;12,822217284157842;-5,7028841898861655;18,919888912625506;-88,35108493301188;239,02096621601;-109,7445600756859
12:09:17.421;0;Wrist;1;59850;9,88;12,012305635242775;4,189532341990417;27,72245323038423;4,189532341990417;12,012305635242775;27,72245323038423;-15,381328775902585;445,722830896939;-70,6198309274575
12:09:17.421;0;Wrist;1;59851;9,88;25,335783715323345;-21,189319666127506;23,957615512558366;-21,189319666127506;25,335783715323345;23,957615512558366;-179,63194677571948;489,333780938139;4,364146855067599
12:09:17.421;0;Wrist;1;59852;9,88;-9,239222197637867;-2,0684470561082797;8,991583567308572;-2,0684470561082797;-9,239222197637867;8,991583567308572;-234,7788933988464;366,74092837305824;-1,2207403790398876
12:09:17.421;0;Wrist;1;59853;9,88;-32,10220267342143;-3,398761043885617;19,593420972319713;-3,398761043885617;-32,10220267342143;19,593420972319713;-115,93981749931334;331,5530869472335;-34,66902676473281
12:09:17.421;0;Wrist;1;59854;9,88;6,54150851084933;-14,034095851008637;11,841230315561388;-14,034095851008637;6,54150851084933;11,841230315561388;-8,606219672231209;309,27457502975557;-34,730063783684805
12:09:17.430;0;Mov;1;13526;10,08;-12,59013069551683;8,12305063020722;15,63956495864742;8,12305063020722;-12,59013069551683;15,63956495864742;-42,11554307687612;-2,685628833887753;155,2171391949217
12:09:17.430;0;Mov;1;13527;10,08;-14,359495643482772;6,961418404950102;19,068233664967803;6,961418404950102;-14,359495643482772;19,068233664967803;-24,628437147129734;-28,107547227393415;129,00173955504013
12:09:17.430;0;Mov;1;13528;10,08;-16,06665242469558;6,572612594225898;21,404658268990143;6,572612594225898;-16,06665242469558;21,404658268990143;4,66933194982757;-55,177465132602926;93,08145390179143
12:09:17.431;0;Mov;1;13529;10,08;-17,302457502975553;7,051142822809534;22,891689809869685;7,051142822809534;-17,302457502975553;22,891689809869685;46,63228247932371;-81,4844203009125;49,195837275307476
12:09:17.431;0;Mov;1;13530;10,08;-15,991284104434339;7,384918038727989;21,667849894711143;7,384918038727989;-15,991284104434339;21,667849894711143;94,48530533768731;-111,20944853053376;3,69273964659566
12:09:17.460;0;Mov;1;13531;9,83;-11,604358043153173;7,6277719389935;17,827644810327463;7,6277719389935;-11,604358043153173;17,827644810327463;126,22455519272438;-147,7706228827784;-30,060731833857233
12:09:17.460;0;Mov;1;13532;9,83;-7,526084265419477;8,130229155858029;13,451485106967375;8,130229155858029;-7,526084265419477;13,451485106967375;118,4423352763451;-180,70009460737938;-43,85509811700796
12:09:17.460;0;Mov;1;13533;9,83;-5,73997037797174;8,091946546830652;10,254902989288004;8,091946546830652;-5,73997037797174;10,254902989288004;72,78664510025331;-204,1993469038972;-44,40443128757592
12:09:17.460;0;Mov;1;13534;9,83;-6,567827387310404;6,443409623249001;10,093399037141026;6,443409623249001;-6,567827387310404;10,093399037141026;19,867549668874172;-223,51756340220345;-39,063692129276404
12:09:17.460;0;Mov;1;13535;9,83;-8,25345049897763;4,558000427259133;11,113864558854946;4,558000427259133;-8,25345049897763;11,113864558854946;-11,017181920834986;-247,50511185033724;-32,898953215124976
12:09:17.468;0;Wrist;1;59855;9,94;12,470498138370923;-10,123307176427502;9,244007881405071;-10,123307176427502;12,470498138370923;9,244007881405071;-4,638813440351573;198,40083010345774;-21,454512161626027
12:09:17.468;0;Wrist;1;59856;9,94;-7,7737238494521925;-0,5347575423635059;5,485152745139928;-0,5347575423635059;-7,7737238494521925;5,485152745139928;-27,28354747154149;82,85775322733238;-20,355845820490128
12:09:17.468;0;Wrist;1;59857;9,94;0,7429182156399732;0,6472121699232459;0;0,6472121699232459;0,7429182156399732;0,20696432684274574;-7,354960783715323;65,67583239234595;-13,245033112582782
12:09:17.468;0;Wrist;1;59858;9,94;1,247767618717002;0;1,7585985900448622;-0,4964751121555223;1,247767618717002;1,7585985900448622;-15,564439832758568;54,47553941465499;-10,498367259743034
12:09:17.468;0;Wrist;1;59859;9,94;0;0;1,5193334757530441;0,2249092104146321;-0,4294808741931669;1,5193334757530441;-27,61925107577746;44,49598681600391;-14,67940305795465
12:09:17.492;0;Mov;1;13536;9,73;-9,333732299264504;3,7301431794946134;8,702072588274788;3,7301431794946134;-9,333732299264504;8,702072588274788;-20,264290292062135;-275,4295480208747;-33,99761955626087
12:09:17.492;0;Mov;1;13537;9,73;-8,849220442823572;3,6583636452070682;4,108181917020173;3,6583636452070682;-8,849220442823572;4,108181917020173;-20,477919858394117;-296,5178380687887;-40,58961760307626
12:09:17.492;0;Mov;1;13538;9,73;-7,813202402569659;2,925016022217475;2,7611194666127505;2,925016022217475;-7,813202402569659;2,7611194666127505;-24,842066713461715;-306,77205725272376;-46,693319498275706
12:09:17.492;0;Mov;1;13539;9,73;-7,788079470198675;1,348258990562151;5,4349073572496716;1,348258990562151;-7,788079470198675;5,4349073572496716;-39,70458082827235;-319,28464613788265;-51,21005890072329
12:09:17.492;0;Mov;1;13540;9,73;-9,327750671407209;-0,5024567400128178;6,79393282494583;-0,5024567400128178;-9,327750671407209;6,79393282494583;-57,19168675801874;-336,893826105533;-60,640278328806424
12:09:17.498;0;Wrist;1;59860;8,98;0;-0,5969664840006714;1,9547960076067386;-0,5969664840006714;0,0478530228583636;1,9547960076067386;-27,558214056825463;44,61806085390789;-15,2287362285226
12:09:17.498;0;Wrist;1;59861;8,98;0;-0,5969664840006714;1,7119418689153723;-0,5969664840006714;0,40316172950300605;1,7119418689153723;-29,206213568529314;37,72087771233253;-13,122959074678793
12:09:17.498;0;Wrist;1;59862;8,98;0;0,9797906668675802;0,9762017020744956;0,9797906668675802;0,412732322153386;0,9762017020744956;-33,41776787621693;33,082064271980954;-12,848292489394819
12:09:17.498;0;Wrist;1;59863;8,98;0;0,7716299935911131;1,538474661053804;0,7716299935911131;-0,3553087066446425;1,538474661053804;-35,24887844477676;37,44621112704856;-15,411847285378583
12:09:17.498;0;Wrist;1;59864;8,98;0;0,7417218543046358;1,381756035035249;0,7417218543046358;-0,20457167868015075;1,381756035035249;-32,898953215124976;37,41569261757256;-16,266365550706503
12:09:17.557;0;Wrist;1;59865;9,22;-0,5263832514419996;1,0467848750267037;1,3350993139057588;1,0467848750267037;-0,5263832514419996;1,3350993139057588;-31,128879665517136;35,401470992156746;-16,75466170232246
12:09:17.557;0;Wrist;1;59866;9,22;-0,5838068669507431;0,6878872035889767;1,3566332218771935;0,6878872035889767;-0,5838068669507431;1,3566332218771935;-28,107547227393415;33,63139744254891;-15,198217719046601
12:09:17.557;0;Wrist;1;59867;9,22;0;0;1,0874599682988983;0,20457167868015075;0,15193334459498123;1,0874599682988983;-27,95495468001343;29,725028229621266;-13,611255226294748
12:09:17.557;0;Wrist;1;59868;9,22;0;0;1,6640888460570087;-0,1985900508228553;0,4426404614398633;1,6640888460570087;-33,143101290932954;26,429029206213567;-14,740440076906644
12:09:17.557;0;Wrist;1;59869;9,22;0;0;1,7574022883159885;0,32540056735816525;-0,15911130398438214;1,7574022883159885;-36,37806329538866;27,03939939573351;-16,693624683370466
12:09:17.617;0;Mov;1;13541;10,22;-9,346891499069185;-1,7514206604586933;5,219568754387036;-1,7514206604586933;-9,346891499069185;5,219568754387036;-67,72057252723776;-353,70952482680747;-76,052125614185
12:09:17.617;0;Mov;1;13542;10,22;-7,433967482528153;-3,0625934629352702;2,962102210303049;-3,0625934629352702;-7,433967482528153;2,962102210303049;-77,94427320169683;-361,7969298379467;-91,61656544694357
12:09:17.617;0;Mov;1;13543;10,22;-6,670711481826228;-4,463490802484206;2,377098862804041;-4,463490802484206;-6,670711481826228;2,377098862804041;-93,87493514816737;-360,36255989257484;-100,49745170445875
12:09:17.617;0;Mov;1;13544;10,22;-7,755778965880307;-5,5928220465712455;4,461097960600604;-5,5928220465712455;-7,755778965880307;4,461097960600604;-104,25122837000642;-356,79189428388315;-105,86870937223426
12:09:17.617;0;Mov;1;13545;10,22;-6,5271524132511365;-6,271138836329234;6,06895991012299;-6,271138836329234;-6,5271524132511365;6,06895991012299;-104,3427838984344;-356,97500534073913;-111,63670766319773
12:09:17.618;0;Mov;1;13546;9,49;-3,745695459608753;-6,911173017059847;5,507882835627308;-6,911173017059847;-3,745695459608753;5,507882835627308;-113,55937376018555;-359,7827082125309;-110,8737449262978
12:09:17.618;0;Mov;1;13547;9,49;-2,5601367229224525;-7,4782312425611135;4,066310522019105;-7,4782312425611135;-2,5601367229224525;4,066310522019105;-132,7860347300638;-358,378856776635;-100,95522934659871
12:09:17.618;0;Mov;1;13548;9,49;-0,8936552138012329;-7,9591543130283515;3,7169837412640767;-7,9591543130283515;-0,8936552138012329;3,7169837412640767;-149,9374370555742;-350,8407849360637;-86,03167821283608
12:09:17.618;0;Mov;1;13549;9,49;0;-9,571801469466232;6,072548696096683;-9,571801469466232;-0,2273018585772271;6,072548696096683;-166,5395062105167;-339,64049195837276;-68,26990569780573
12:09:17.619;0;Mov;1;13550;9,49;-1,1066011535996583;-12,37000640888699;10,244135677663502;-12,37000640888699;-1,1066011535996583;10,244135677663502;-185,36942655720694;-331,36997589037753;-56,61183507797479
12:09:17.621;0;Wrist;1;59870;9,47;-2,835291604358043;1,1783806878872036;3,3688529045991396;1,1783806878872036;-2,835291604358043;3,3688529045991396;-33,295693838312935;30,610065004425184;-14,740440076906644
12:09:17.621;0;Wrist;1;59871;9,47;-2,0923735675374613;2,2287545873134555;4,278060338908047;2,2287545873134555;-2,0923735675374613;4,278060338908047;-19,104586931974243;56,73390911587878;-7,812738425855281
12:09:17.621;0;Wrist;1;59872;9,47;-2,416577654347362;0;4,273275131992554;0,34573808419103064;-2,416577654347362;4,273275131992554;8,941923276467177;109,59196752830591;-5,706961272011475
12:09:17.621;0;Wrist;1;59873;9,47;-2,0002563077944275;4,799658383434553;2,0660542142246774;4,799658383434553;-2,0002563077944275;2,0660542142246774;43,305764946440014;152,10425122837;-4,638813440351573
12:09:17.621;0;Wrist;1;59874;9,47;-2,244306867427595;4,699167130802332;0;4,699167130802332;-2,244306867427595;0,36846829389133884;63,20383312479019;161,80913724173712;-12,482070375682852
12:09:17.648;0;Mov;1;13551;9,46;-2,0792138908810696;-15,813032166508988;12,530314416943876;-15,813032166508988;-2,0792138908810696;12,530314416943876;-197,72942289498582;-332,04138309884945;-61,28116702780236
12:09:17.648;0;Mov;1;13552;9,46;-1,1006195257423628;-19,6161515396588;11,716813028351694;-19,6161515396588;-1,1006195257423628;11,716813028351694;-198,12616351817377;-334,91012298959316;-79,07345805230872
12:09:17.648;0;Mov;1;13553;9,46;3,059004438535722;-23,48985259559923;8,832471503341777;-23,48985259559923;3,059004438535722;8,832471503341777;-195,28794213690603;-331,27842036194954;-98,26960051271097
12:09:17.648;0;Mov;1;13554;9,46;9,49523625141148;-27,558555482650227;5,760307626575518;-27,558555482650227;9,49523625141148;5,760307626575518;-203,2837916196173;-316,81264687032683;-108,06604205450606
12:09:17.648;0;Mov;1;13555;9,46;14,67532597582934;-31,77560502945036;5,303311544389172;-31,77560502945036;14,67532597582934;5,303311544389172;-221,59489730521562;-294,04583880123295;-102,54219183935056
12:09:17.678;0;Wrist;1;59875;9,69;0;3,3030549981688893;3,282717511139256;3,3030549981688893;-0,32061527103297527;3,282717511139256;62,47138889736625;161,50395214697716;-15,625476851710562
12:09:17.678;0;Wrist;1;59876;9,69;-1,8267892191457868;9,160265091402936;6,321384224219489;9,160265091402936;-1,8267892191457868;6,321384224219489;65,24857325968199;197,9125339518418;-13,733329264198737
12:09:17.678;0;Wrist;1;59877;9,69;-2,7599230456709494;7,699551473281045;9,083699873348186;7,699551473281045;-2,7599230456709494;9,083699873348186;105,04470961638233;270,14984588152714;-26,032288583025604
12:09:17.678;0;Wrist;1;59878;9,69;0;3,6906643879512924;7,286819151127659;3,6906643879512924;0,0023926511894857296;7,286819151127659;155,5833613086337;379,19248023926514;-45,22843104342784
12:09:17.678;0;Wrist;1;59879;9,69;0,5144199957274087;5,720829073458052;8,625507370220038;5,720829073458052;0,5144199957274087;8,625507370220038;159,61180455946533;490,1882992034669;-55,51316873683889
12:09:17.700;0;Mov;1;13556;9,66;16,072634052552875;-35,26289407025361;5,999572740867336;-35,26289407025361;16,072634052552875;5,999572740867336;-222,26630451368754;-268,1966612750633;-83,8038270210883
12:09:17.701;0;Mov;1;13557;9,66;15,44336718344676;-38,21303064058351;2,6953215601825007;-38,21303064058351;15,44336718344676;2,6953215601825007;-180,3949095126194;-236,8846705526902;-60,9149449140904
12:09:17.701;0;Mov;1;13558;9,66;14,558086260567034;-39,201197088534194;-4,797265541550951;-39,201197088534194;14,558086260567034;-4,797265541550951;-107,66930143131809;-194,4029053621021;-43,54991302224799
12:09:17.701;0;Mov;1;13559;9,66;12,40111144596698;-39,201197088534194;-11,515830523087253;-39,201197088534194;12,40111144596698;-11,515830523087253;-41,474654377880185;-137,33329264198736;-35,950804162724694
12:09:17.701;0;Mov;1;13560;9,66;10,0084603030488;-39,201197088534194;-14,962444112979522;-39,201197088534194;10,0084603030488;-14,962444112979522;-2,8992584002197335;-75,80797753837703;-43,610950041199985
12:09:17.708;0;Wrist;1;59880;9,8;-0,5861995300149541;7,809613616595965;7,666054548020875;7,809613616595965;-0,5861995300149541;7,666054548020875;144,29151280251472;600,4821924497207;-57,771538438062684
12:09:17.708;0;Wrist;1;59881;9,8;-1,8638752880184333;7,555992404705954;9,0872896130253;7,555992404705954;-1,8638752880184333;9,0872896130253;160,13061922055726;667,5618762779626;-68,94131290627766
12:09:17.708;0;Wrist;1;59882;9,8;-1,1843623157444991;7,113351943266091;9,930699140903958;7,113351943266091;-1,1843623157444991;9,930699140903958;194,83016449476608;721,5186010315256;-93,66130558183538
12:09:17.708;0;Wrist;1;59883;9,8;-6,103653256324961;2,848451281014435;16,0367442854091;2,848451281014435;-6,103653256324961;16,0367442854091;224,9824518570513;744,1938535721915;-134,8612933744316
12:09:17.708;0;Wrist;1;59884;9,8;-3,0518266281624804;-14,782995277260659;35,61222037415693;-14,782995277260659;-3,0518266281624804;35,61222037415693;151,86010315256203;468,88637958922084;-232,52052369762262
12:09:17.767;0;Wrist;1;59885;9,92;-2,225165562913907;18,94381542405469;35,651699880977816;18,94381542405469;-2,225165562913907;35,651699880977816;62,685018463698235;99,76500747703483;-212,9581591235084
12:09:17.767;0;Wrist;1;59886;9,92;2,893911700415052;19,763298440504165;33,500705740531636;19,763298440504165;2,893911700415052;33,500705740531636;81,60649433881649;76,63197729422895;-225,56230353709526
12:09:17.767;0;Wrist;1;59887;9,92;2,59004486220893;18,98090113528855;21,927451780755028;18,98090113528855;2,59004486220893;21,927451780755028;30,152287362285225;0,3357036042359691;-226,78304391613514
12:09:17.767;0;Wrist;1;59888;9,92;2,9357830954161197;18,415040284432507;12,158256591998047;18,415040284432507;2,9357830954161197;12,158256591998047;10,711996826075014;-38,514358958708456;-224,34156315805535
12:09:17.767;0;Wrist;1;59889;9,92;4,896560850093081;18,75718901638844;10,378124332407605;18,75718901638844;4,896560850093081;10,378124332407605;14,221625415814692;-56,550798059022796;-219,06186101870784
12:09:17.797;0;Wrist;1;59890;9,83;7,82636207922605;17,84558969389935;13,745780816064944;17,84558969389935;7,82636207922605;13,745780816064944;17,27347636341441;-79,4396801660207;-206,79342020935698
12:09:17.797;0;Wrist;1;59891;9,83;11,642640652180548;17,015339365825373;17,57282670064394;17,015339365825373;11,642640652180548;17,57282670064394;13,794366283150731;-107,6082644123661;-184,14868617816705
12:09:17.797;0;Wrist;1;59892;9,83;14,934928815576647;16,237727744376965;19,233327356791893;16,237727744376965;14,934928815576647;19,233327356791893;-8,6977752006592;-137,73003326517534;-150,51728873561817
12:09:17.797;0;Wrist;1;59893;9,83;16,314292962431715;16,319076738792077;18,328903698843348;16,319076738792077;16,314292962431715;18,328903698843348;-46,81539353617969;-161,80913724173712;-109,04263435773797
12:09:17.797;0;Wrist;1;59894;9,83;15,975732062746056;16,53082750938444;15,548643642994476;16,53082750938444;15,975732062746056;15,548643642994476;-84,8414563432722;-177,83135471663564;-65,46220282601398
12:09:17.826;0;Mov;1;13561;10,16;9,833796197393719;-39,201197088534194;-14,858363597521898;-39,201197088534194;9,833796197393719;-14,858363597521898;6,897183141575366;-27,49717703787347;-58,16827906125065
12:09:17.826;0;Mov;1;13562;10,16;10,52527218695639;-38,31232642597735;-11,835248687704093;-38,31232642597735;10,52527218695639;-11,835248687704093;-18,18903164769433;10,498367259743034;-69,30753501998963
12:09:17.826;0;Mov;1;13563;10,16;10,595855777153844;-35,222216711935786;-9,601709608752708;-35,222216711935786;10,595855777153844;-9,601709608752708;-54,322946867275;39,429914242988374;-76,84560686056093
12:09:17.826;0;Mov;1;13564;10,16;12,986114078188422;-32,61901455732902;-10,599444563127538;-32,61901455732902;12,986114078188422;-10,599444563127538;-69,00234992522965;60,487685781426435;-83,71227149266029
12:09:17.826;0;Mov;1;13565;10,16;20,20713484603412;-34,30822550126652;-32,56637394329661;-34,30822550126652;20,20713484603412;-32,56637394329661;-46,327097384563736;161,35135959959715;-53,01065095980712
12:09:17.827;0;Mov;1;13566;9,99;21,276650288399914;-22,021961882381664;-3,7600513187810907;-22,021961882381664;21,276650288399914;-3,7600513187810907;65,34012878811;224,73830378124333;36,37806329538866
12:09:17.827;0;Mov;1;13567;9,99;11,658192693868832;14,370262955107272;30,027771843623157;14,370262955107272;11,658192693868832;30,027771843623157;119,02218695638905;166,75313577684867;86,51997436445204
12:09:17.827;0;Mov;1;13568;9,99;10,093399037141026;3,9622304834131903;7,392096087527086;3,9622304834131903;10,093399037141026;7,392096087527086;14,007995849482711;309,0914639728996;98,66634113589892
12:09:17.827;0;Mov;1;13569;9,99;-19,94274727622303;-9,831403355510117;21,20247886593219;-9,831403355510117;-19,94274727622303;21,20247886593219;110,81270790734581;407,97143467513047;110,8737449262978
12:09:17.827;0;Mov;1;13570;9,99;-21,141466643269144;-20,812477111117893;17,48549417096469;-20,812477111117893;-21,141466643269144;17,48549417096469;280,3125095370342;407,7578051087985;22,461622974333935
12:09:17.849;0;Mov;1;13571;9,96;20,247810296945097;1,6234138719977416;10,619782288583025;1,6234138719977416;20,247810296945097;10,619782288583025;239,66185491500596;340,2508621478927;4,058961760307627
12:09:17.849;0;Mov;1;13572;9,96;15,862081133457442;-10,47024159215064;13,409613711966308;-10,47024159215064;15,862081133457442;13,409613711966308;126,49922177800836;343,18063905758845;42,847987304300055
12:09:17.849;0;Mov;1;13573;9,96;-21,512327570421462;-24,943388164922027;1,6377697311700796;-24,943388164922027;-21,512327570421462;1,6377697311700796;62,990203558458205;249,885555589465;51,17954039124729
12:09:17.850;0;Mov;1;13574;9,96;6,4135014839625235;-5,890707018494217;7,764152958769493;-5,890707018494217;6,4135014839625235;7,764152958769493;58,87020477919858;81,91167943357647;51,789910580767234
12:09:17.850;0;Mov;1;13575;9,96;2,8532364879299297;0;0,598162785729545;0,04187139500106815;2,8532364879299297;0,598162785729545;34,638508255256816;50,53865169225135;31,342509231849117
12:09:17.858;0;Wrist;1;59895;9,96;14,25780796990875;15,57496299630726;12,950224311044648;15,57496299630726;14,25780796990875;12,950224311044648;-110,56855983153783;-194,25031281472212;-25,605029450361645
12:09:17.858;0;Wrist;1;59896;9,96;12,038624034852138;13,563939138462478;11,519419309060945;13,563939138462478;12,038624034852138;11,519419309060945;-118,5033722952971;-215,2470473342082;3,9063692129276406
12:09:17.858;0;Wrist;1;59897;9,96;9,869685964537492;11,41533879360332;8,620722640156254;11,41533879360332;9,869685964537492;8,620722640156254;-106,5095980712302;-237,86126285592212;20,508438367870113
12:09:17.858;0;Wrist;1;59898;9,96;8,928177549058503;9,179405919064912;5,311685537278359;9,179405919064912;8,928177549058503;5,311685537278359;-74,64827417828913;-254,3717764824366;27,80236213263344
12:09:17.858;0;Wrist;1;59899;9,96;9,563426999725333;7,357402264473403;5,2422988448744166;7,357402264473403;9,563426999725333;5,2422988448744166;-45,86931974242378;-263,4052552873318;31,311990722373118
12:09:17.910;0;Mov;1;13576;9,96;0;-2,024182819223609;0,7991454698133793;-2,024182819223609;-0,29309976500747703;0,7991454698133793;21,912289803765983;56,550798059022796;21,240882595294046
12:09:17.910;0;Mov;1;13577;9,96;-1,4571245937223427;-3,592565738776818;1,6772485227134006;-3,592565738776818;-1,4571245937223427;1,6772485227134006;16,51051362651448;43,488876003296;16,51051362651448
12:09:17.910;0;Mov;1;13578;9,96;-1,1544541764580218;-2,298141518143254;1,085067364841151;-2,298141518143254;-1,1544541764580218;1,085067364841151;13,977477340006715;24,414807580797753;18,311105685598314
12:09:17.910;0;Mov;1;13579;9,96;0;-1,6928006836146123;0,6567827625736259;-1,6928006836146123;-0,4246955778679769;0,6567827625736259;20,813623462630087;18,18903164769433;17,334513382366406
12:09:17.910;0;Mov;1;13580;9,96;0;-1,587524104853969;0,7979491680845058;-1,587524104853969;-0,052638326634361556;0,7979491680845058;22,61421552171392;16,388439588610492;12,115848261970886
12:09:17.921;0;Wrist;1;59900;9,97;10,353001876888333;6,159880272072512;6,817859336375012;6,159880272072512;10,353001876888333;6,817859336375012;-28,168584246345407;-273,7205114902188;34,69954527420881
12:09:17.921;0;Wrist;1;59901;9,97;9,668703459273049;5,638282704397717;5,27938503295999;5,638282704397717;9,668703459273049;5,27938503295999;-14,099551377910704;-286,14154484694967;43,64146855067599
12:09:17.922;0;Wrist;1;59902;9,97;7,407648129215369;4,674044198431349;3,645203968550676;4,674044198431349;7,407648129215369;3,645203968550676;2,8992584002197335;-295,99902340769677;51,66783654286325
12:09:17.922;0;Wrist;1;59903;9,97;5,775860145115512;3,441828621402631;3,9694082937864317;3,441828621402631;5,775860145115512;3,9694082937864317;27,130954924161504;-302,46894741660816;53,71257667775506
12:09:17.922;0;Wrist;1;59904;9,97;5,920615157780694;2,379491704687643;5,579662369914853;2,379491704687643;5,920615157780694;5,579662369914853;48,28028199102756;-307,9317606128117;51,82042909024323
12:09:17.980;0;Wrist;1;59905;9,61;5,518650147251808;1,2154667567598498;7,846699804681539;1,2154667567598498;5,518650147251808;7,846699804681539;54,963835566270944;-316,8431653798028;50,050355540635394
12:09:17.980;0;Wrist;1;59906;9,61;3,9012177838984345;0;9,258363979003265;-0,11245460520731605;3,9012177838984345;9,258363979003265;57,43583483382672;-329,78301339762567;46,84591204565569
12:09:17.980;0;Wrist;1;59907;9,61;2,8269173730430004;-1,0539628046128726;9,421063875240334;-1,0539628046128726;2,8269173730430004;9,421063875240334;63,90575884273812;-343,4858241523484;37,87347025971251
12:09:17.980;0;Wrist;1;59908;9,61;3,591369317835017;-2,1593676564836572;9,577783097323527;-2,1593676564836572;3,591369317835017;9,577783097323527;70,49775688955351;-352,8855250709555;24,323252052369764
12:09:17.980;0;Wrist;1;59909;9,61;4,408459730826746;-3,441828621402631;9,106430440687276;-3,441828621402631;4,408459730826746;9,106430440687276;74,67879268776512;-357,28019043549915;14,007995849482711
12:09:18.001;0;Mov;1;13581;9,6;-1,7430464291436507;0;0,6531937977805414;-0,1315958128604999;-1,7430464291436507;0,6531937977805414;20,783104953154087;19,5928830835902;9,216589861751151
12:09:18.001;0;Mov;1;13582;9,6;-1,9799188207647938;-0,8410168648144475;0,5311685775704215;-0,8410168648144475;-1,9799188207647938;0,5311685775704215;24,903103732413708;27,863399151585437;15,533921323282572
12:09:18.001;0;Mov;1;13583;9,6;0;-0,9427045979949339;0,727365935525834;-0,9427045979949339;-0,410339688892407;0,727365935525834;29,48088015381329;31,800286873989073;19,5623645741142
12:09:18.001;0;Mov;1;13584;9,6;0;-1,0659260603274636;1,04558857329783;-1,0659260603274636;0,25003203847430344;1,04558857329783;29,267250587481307;37,04947050386059;16,876735740226447
12:09:18.001;0;Mov;1;13585;9,6;0;-0,8446058892139958;1,003717178296762;-0,8446058892139958;-0,415124985217597;1,003717178296762;28,992584002197333;42,05450605792413;12,451551866206854
12:09:18.002;0;Mov;1;13586;9,6;0;-1,6425550572985015;1,2537492465742972;-1,6425550572985015;-0,3744499217486343;1,2537492465742972;31,342509231849117;47,73094882045961;11,474959562974945
12:09:18.002;0;Mov;1;13587;9,6;0;-1,8052553111743523;0;-1,8052553111743523;-0,4270882409321879;0,3194189395008698;39,85717337565233;45,503097628711814;10,467848750267036
12:09:18.002;0;Mov;1;13588;9,6;1,9787225190359203;0,7632557026696066;1,5265114053392133;0,7632557026696066;1,9787225190359203;1,5265114053392133;45,01480147709586;34,18073061311686;4,394665364543596
12:09:18.002;0;Mov;1;13589;9,6;0;0;1,0025208765678884;0,1531296761270867;-0,21653493439474167;1,0025208765678884;33,63139744254891;56,88650166325877;-2,3499252296517836
12:09:18.002;0;Mov;1;13590;9,6;0,8039307959418012;3,3951720194860684;1,7813287997451706;3,3951720194860684;0,8039307959418012;1,7813287997451706;9,582811975463118;90,79256569109165;1,6479995117038484
12:09:18.008;0;Wrist;1;59910;9,71;4,619013126773888;-4,76376861629078;8,289340266121403;-4,76376861629078;4,619013126773888;8,289340266121403;84,07849360637226;-357,8600421155431;7,477034821619312
12:09:18.008;0;Wrist;1;59911;9,71;6,860927152317881;-6,329758693960387;7,314334448530534;-6,329758693960387;6,860927152317881;7,314334448530534;102,63374736777855;-350,1388592181158;7,080294198431349
12:09:18.008;0;Wrist;1;59912;9,71;7,925656910916471;-7,601453062532426;7,230591658528398;-7,601453062532426;7,925656910916471;7,230591658528398;125,21744438001647;-338,7554551835688;19,287697988830224
12:09:18.008;0;Wrist;1;59913;9,71;8,626704268013551;-9,563426999725333;8,753514397106846;-9,563426999725333;8,626704268013551;8,753514397106846;156,3158055360576;-325,93768120365;45,258949552903836
12:09:18.008;0;Wrist;1;59914;9,71;7,0559285065767385;-12,155864703817866;11,726383442182684;-12,155864703817866;7,0559285065767385;11,726383442182684;187,50572222052676;-317,81975768303477;84,32264168218025
12:09:18.067;0;Wrist;1;59915;9,93;3,285110114597003;-15,912326998199408;16,03315645313883;-15,912326998199408;3,285110114597003;16,03315645313883;207,4953459273049;-318,3385723441267;125,37003692739647
12:09:18.068;0;Wrist;1;59916;9,93;-0,8027344942129276;-21,034993285927914;18,01905690176092;-21,034993285927914;-0,8027344942129276;18,01905690176092;219,51963866084782;-324,8084963530381;161,71758171330913
12:09:18.068;0;Wrist;1;59917;9,93;-6,962614825891904;-26,678060243537704;13,999402027954954;-26,678060243537704;-6,962614825891904;13,999402027954954;214,81978820154424;-325,876644184698;186,28498184148685
12:09:18.068;0;Wrist;1;59918;9,93;-14,178850863673818;-32,275669881283;7,41961138492996;-32,275669881283;-14,178850863673818;7,41961138492996;193,4263130588702;-306,5584276863918;186,9869075594348
12:09:18.068;0;Wrist;1;59919;9,93;-18,23319765312662;-36,89228873561815;3,1451400704214607;-36,89228873561815;-18,23319765312662;3,1451400704214607;158,8183233130894;-264,8396252327036;159,8254341257973
