Frecuencia (Hz);100
time;timespan;canal;id;sample;gap;accX;accY;accZ;rawAccX;rawAccY;rawAccZ;rawGirX;rawGirY;rawGirZ
11:51:01.269;0;Mov;1;9706;7,6;0;0;0;0,49886777521973324;0,119632557145909;-0,3947874385814997;0,793481246375927;4,608294930875576;-2,410962248603778
11:51:01.269;0;Mov;1;9707;7,6;0;0;0;0,358897671437727;0,06699423051154745;-0,31104464857936337;3,3875545518356884;10,284737693411055;-3,0823694570757163
11:51:01.269;0;Mov;1;9708;7,6;0;0;0;0,4019653979709006;0,028711815205179753;-0,28113650929288614;6,74459059419538;13,36710715048677;-3,204443494979705
11:51:01.269;0;Mov;1;9709;7,6;0;0;0;0,4701559674653615;0,05383465071565905;-0,2464430736812189;9,491256447035127;17,05984679708243;-3,051850947599719
11:51:01.269;0;Mov;1;9710;7,6;0;0;0;0,34573808419103064;0,026319163317180778;-0,025122837373181287;11,108737449262978;21,759697256385998;-2,7466658528397474
11:51:01.270;0;Wrist;1;56060;15,81;0;0;0;0,38760947919209876;-0,19500107112815485;-0,2440504255186239;-1,8311105685598315;0,18311105685598317;-1,4343699453718681
11:51:01.270;0;Wrist;1;56061;15,81;0;0,5598803555215613;0;0,5598803555215613;-0,20217903051755579;-0,33018586368335523;-1,4648884548478653;2,9602954191717274;-2,7466658528397474
11:51:01.270;0;Wrist;1;56062;15,81;0;0;0;0,38043154960592973;-0,1770561875562685;-0,12561418500320445;-1,098666341135899;7,202368236335337;-4,394665364543596
11:51:01.270;0;Wrist;1;56063;15,81;0;0;0;-0,00837427881394343;-0,22251656225203711;0,18303781541356395;-0,9155552842799157;9,88799707022309;-5,401776177251503
11:51:01.270;0;Wrist;1;56064;15,81;0;0;0;-0,019141209515885837;-0,28472550388920254;0,17107455969897306;-0,45777764213995786;9,765923032319101;-5,554368724631489
11:51:01.272;0;Wrist;1;56065;13,61;0;0;0;0,11245460520731605;-0,31104464857936337;0,1411664204124958;0,15259254737998595;9,216589861751151;-5,645924253059481
11:51:01.272;0;Wrist;1;56066;13,61;0;0;0;0,1890194432708594;-0,3265968988902707;0,0358897671437727;0,12207403790398877;8,789330729087192;-5,096591082491531
11:51:01.272;0;Wrist;1;56067;13,61;0;0;0;0,26199529418889433;-0,19978636745334483;-0,040675070919770656;-0,5493331705679495;8,636738181707205;-4,8829615161595505
11:51:01.272;0;Wrist;1;56068;13,61;0;0;0;0,21055330653744622;-0,2799401777607807;0,04904935066506508;-1,0071108127079074;9,33866389965514;-5,1576281014435255
11:51:01.273;0;Wrist;1;56069;13,61;0;0;0;0,0945097216354297;-0,30745568378627885;0,07776116214484084;-1,1902218695638904;9,704886013367107;-5,340739158299509
11:51:01.273;0;Wrist;1;56070;11,93;0;0;0;0,17227089123107853;-0,29549242807168796;0,03230079117447623;-0,9155552842799157;9,735404522843105;-4,913480025635548
11:51:01.273;0;Wrist;1;56071;11,93;0;0;0;0,3553087066446425;-0,21414228623214668;-0,019141209515885837;-0,4272591326639607;10,498367259743034;-4,821924497207556
11:51:01.273;0;Wrist;1;56072;11,93;0;0;0;0,28831446868228705;-0,11125828112601856;-0,052638326634361556;0;12,604144413586841;-5,4322946867275
11:51:01.274;0;Wrist;1;56073;11,93;0;0;0;0,1890194432708594;-0,22610554194673757;-0,00598162785729545;0,21362956633198035;14,252143925290689;-6,042664876247444
11:51:01.274;0;Wrist;1;56074;11,93;0;0;0;0,17346720786156805;-0,23208716980403302;0,015552232615238368;-0,27466658528397475;15,167699209570605;-5,920590838343455
11:51:01.274;0;Mov;1;9711;6,87;0;0;0;0,24524674214911343;0,0358897671437727;0,058619954491657;12,024292733542893;23,651844843897823;-2,1362956633198036
11:51:01.274;0;Mov;1;9712;6,87;0;0;0;0,2548173646027253;0,04426404688906713;-0,013159581658590389;12,359996337778863;24,109622486037782;-0,793481246375927
11:51:01.275;0;Mov;1;9713;6,87;0;0;0;0,08733176969683676;-0,06579790643024995;0,32061527103297527;10,773033845027008;25,482955412457656;1,586962492751854
11:51:01.275;0;Mov;1;9714;6,87;0;0;0;0,04904935066506508;0,04187139500106815;0,22132023071993165;8,636738181707205;21,97332682271798;2,3499252296517836
11:51:01.275;0;Mov;1;9715;6,87;0;0;0;0,1794488357188635;0,02990813928647725;-0,058619954491657;6,897183141575366;20,020142216254158;3,021332438123722
11:51:01.277;0;Wrist;1;56075;10,68;0;0;0;0;-0,15193334459498123;0,12800683316579944;-0,8239997558519242;15,625476851710562;-5,798516800439467
11:51:01.277;0;Wrist;1;56076;10,68;0;0;0;-0,05024567474636257;-0,2273018585772271;0,1435590685750908;-1,0071108127079074;15,015106662190618;-5,676442762535478
11:51:01.277;0;Wrist;1;56077;10,68;0;0;0;0,013159581658590389;-0,234479817966628;0,1076693014313181;-0,793481246375927;14,069032868434705;-5,096591082491531
11:51:01.277;0;Wrist;1;56078;10,68;0;0;0;0,0239265114291818;-0,2488357218438139;0,16868191153637807;-0,640888698995941;13,733329264198737;-4,516739402447585
11:51:01.277;0;Wrist;1;56079;10,68;0;0;0;-0,11604358490201651;-0,2679769220461898;0,21174962316793572;-0,27466658528397475;13,336588641010772;-4,089480269783624
11:51:01.293;0;Mov;1;9716;6,56;0;0;0;0,21055330653744622;-0,04187139500106815;0,17227089123107853;5,554368724631489;21,362956633198035;3,845332193975646
11:51:01.294;0;Mov;1;9717;6,56;0;0;0;-0,0693868861249504;-0,10886562551261558;0,1674855800042726;3,9979247413556322;19,623401593066195;3,204443494979705
11:51:01.294;0;Mov;1;9718;6,56;0;0;0;-0,03947874311306917;-0,07536851398224585;0,09929502541142765;2,71614734336375;16,541032135990477;3,4180730613116856
11:51:01.294;0;Mov;1;9719;6,56;0;0;0;0,01674855762788686;0,06699423051154745;0,13757744071779535;1,6174810022278512;14,435254982146672;2,563554795983764
11:51:01.294;0;Mov;1;9720;6,56;0;0;0;0,04426404688906713;0,05144199882766007;0,0957060457167272;0,9155552842799157;12,207403790398876;2,5025177770317697
11:51:01.301;0;Wrist;1;56080;10,09;0;0;0;-0,18423414694566942;-0,2153386028626362;0,1985900508228553;-0,12207403790398877;11,84118167668691;-3,4180730613116856
11:51:01.301;0;Wrist;1;56081;10,09;0;0;0;-0,0945097216354297;-0,29668875960379343;0,1866267951082644;-0,15259254737998595;9,88799707022309;-2,8992584002197335
11:51:01.301;0;Wrist;1;56082;10,09;0;0;0;0,007177953801294938;-0,2859218056180761;0,14954069643238624;-0,24414807580797754;8,514664143803216;-2,6551103244117558
11:51:01.301;0;Wrist;1;56083;10,09;0;0;0;0,003588976900647469;-0,3026703874610889;0,18423414694566942;0,09155552842799158;7,599108859523301;-2,166814172795801
11:51:01.301;0;Wrist;1;56084;10,09;0;0;0;0,004785302378971459;-0,34095278786584066;0,13997008888039034;0,45777764213995786;6,988738670003357;-1,6479995117038484
11:51:01.325;0;Mov;1;9721;6,54;0;0;0;0,09929502541142765;-0,0358897671437727;0,06819056204365291;0,4882961516159551;10,956144901882992;2,838221381267739
11:51:01.325;0;Mov;1;9722;6,54;0;0;0;0,0466566987770661;0,01674855762788686;0,12800683316579944;0,24414807580797754;10,22370067445906;1,9531846064638203
11:51:01.325;0;Mov;1;9723;6,54;0;0;0;0;0,04904935066506508;0,12441786092190694;-0,09155552842799158;8,941923276467177;1,3122959074678793
11:51:01.325;0;Mov;1;9724;6,54;0;0;0;0,052638326634361556;-0,03349711525577372;0,08254646592083881;-0,3967406231879635;7,080294198431349;1,5259254737998595
11:51:01.325;0;Mov;1;9725;6,54;0;0;0;0,01794488357188635;0,03349711525577372;0,11125828112601856;-0,4272591326639607;5,890072328867458;0,5493331705679495
11:51:01.366;0;Wrist;1;56085;10,39;0;0;0;-0,025122837373181287;-0,3062593522541734;0,14714804826979125;0,9460737937559129;6,4394054994354075;-0,9460737937559129
11:51:01.366;0;Wrist;1;56086;10,39;0;0;0;-0,025122837373181287;-0,22849819010933256;0,15671865582178715;1,1291848506118962;5,76799829096347;-0,5493331705679495
11:51:01.367;0;Wrist;1;56087;10,39;0;0;0;0,07536851398224585;-0,28113650929288614;0,13279214439260537;1,3428144169438765;4,486220892971588;-0,18311105685598317
11:51:01.367;0;Wrist;1;56088;10,39;0;0;0;0,08254646592083881;-0,22132023071993165;0,13518479255520036;1,7700735496078372;4,058961760307627;-0,36622211371196634
11:51:01.367;0;Wrist;1;56089;10,39;0;0;0;0;-0,20576799531064027;0,1435590685750908;2,075258644367809;3,845332193975646;-0,5188146610919523
11:51:01.391;0;Wrist;1;56090;9,92;0;0;0;-0,0466566987770661;-0,19500107112815485;0,17227089123107853;2,3499252296517836;3,0823694570757163;-0,6103701895199438
11:51:01.391;0;Wrist;1;56091;9,92;0;0;0;0,0011963255947428648;-0,16868191153637807;0,14236275194460127;2,3194067201757864;2,075258644367809;-0,5798516800439466
11:51:01.391;0;Wrist;1;56092;9,92;0;0;0;0,12202521275931195;-0,18543046357615894;0,10288399765532014;2,197332682271798;1,7700735496078372;-0,7629627368999298
11:51:01.391;0;Wrist;1;56093;9,92;0;0;0;0,3289895321512497;-0,21892758255733666;-0,01794488357188635;2,2583697012237924;1,9837031159398175;-1,1902218695638904
11:51:01.391;0;Wrist;1;56094;9,92;0;0;0;0,06220893046095347;-0,16868191153637807;-0,04904935066506508;2,6551103244117558;3,5096285897396773;-1,7700735496078372
11:51:01.446;0;Mov;1;9726;8,01;0;0;0;0,08972441785943175;-0,04187139500106815;0,04546037097036462;-0,27466658528397475;4,577776421399578;0,36622211371196634
11:51:01.446;0;Mov;1;9727;8,01;0;0;0;0,06699423051154745;-0,08733176969683676;0,010766930701942408;0;4,058961760307627;-0,061037018951994385
11:51:01.446;0;Mov;1;9728;8,01;0;0;0;0,08733176969683676;-0,08493911408343378;0,031104465230476736;0,15259254737998595;3,2349620044557024;-0,3967406231879635
11:51:01.446;0;Mov;1;9729;8,01;0;0;0;0,031104465230476736;-0,06699423051154745;0,04306772280776963;0,030518509475997192;2,8687398907437363;-0,3051850947599719
11:51:01.446;0;Mov;1;9730;8,01;0;0;0;0,14236275194460127;0,052638326634361556;0,003588976900647469;0,09155552842799158;2,0142216254158147;-0,24414807580797754
11:51:01.447;0;Mov;1;9731;7,41;0;0;0;0,2464430736812189;0,0466566987770661;-0,058619954491657;0,45777764213995786;1,7700735496078372;-0,6714072084719382
11:51:01.447;0;Mov;1;9732;7,41;0;0;0;0,19260842296555986;-0,040675070919770656;-0,026319163317180778;1,1597033600878932;2,685628833887753;-0,9155552842799157
11:51:01.447;0;Mov;1;9733;7,41;0;0;0;-0,0837427900021363;-0,18303781541356395;-0,0023926511894857296;1,8921475875118259;3,173924985503708;-0,7629627368999298
11:51:01.447;0;Mov;1;9734;7,41;0;0;0;0,19739371929074984;-0,25003203847430344;-0,0705832102062479;2,2278511917477952;1,4343699453718681;0,21362956633198035
11:51:01.447;0;Mov;1;9735;7,41;0;0;0;0,2464430736812189;-0,34932707878734703;-0,03230079117447623;2,2278511917477952;1,5564439832758568;1,0681478316599018
11:51:01.451;0;Wrist;1;56095;10,09;0;0;0;-0,2009826989854503;-0,12681051653530992;0,13757744071779535;2,4719992675557725;3,2654805139316996;-2,1362956633198036
11:51:01.451;0;Wrist;1;56096;10,09;0;0;0;-0,12441786092190694;-0,1292031646979049;0,17466353939367352;1,9531846064638203;1,4343699453718681;-2,075258644367809
11:51:01.451;0;Wrist;1;56097;10,09;0;0;0;-0,0478530228583636;-0,17825251908837397;0,1914120914334544;1,3428144169438765;-0,24414807580797754;-2,2278511917477952
11:51:01.451;0;Wrist;1;56098;10,09;0;0;0;0;-0,1064729773500206;0,12082888867801446;1,0681478316599018;-1,0681478316599018;-2,5025177770317697
11:51:01.451;0;Wrist;1;56099;10,09;0;0;0;0,1914120914334544;-0,08852809377813425;0,0011963255947428648;0,793481246375927;-1,7090365306558428;-2,8992584002197335
11:51:01.474;0;Mov;1;9736;7,26;0;0;0;0,2464430736812189;-0,35770133990562153;-0,04306772280776963;1,922666096987823;1,6174810022278512;2,380443739127781
11:51:01.474;0;Mov;1;9737;7,26;0;0;0;0,26558428878521073;-0,3313821952154607;-0,03230079117447623;1,6479995117038484;1,6479995117038484;4,119998779259621
11:51:01.474;0;Mov;1;9738;7,26;0;0;0;0,22012391408944212;-0,1531296761270867;-0,027515489261180266;1,6174810022278512;1,73955504013184;5,096591082491531
11:51:01.474;0;Mov;1;9739;7,26;0;0;0;0,25003203847430344;0,2009826989854503;-0,027515489261180266;1,6479995117038484;1,9837031159398175;4,7303689687795645
11:51:01.474;0;Mov;1;9740;7,26;0;0;0;0,19380473959604938;0,20337534714804528;-0,05024567474636257;2,1057771538438064;2,533036286507767;3,3875545518356884
11:51:01.481;0;Wrist;1;56100;9,79;0;0;0;0,4258919094000824;-0,22969452164143803;-0,05742363041035951;0,5188146610919523;-1,2207403790398876;-3,357036042359691
11:51:01.481;0;Wrist;1;56101;9,79;0;0;0;0,32779320061914424;-0,2871181371501816;-0,04187139500106815;0,8850367748039186;1,098666341135899;-3,4180730613116856
11:51:01.481;0;Wrist;1;56102;9,79;0;0;0;-0,015552232615238368;-0,30745568378627885;-0,00598162785729545;1,2512588885158848;2,563554795983764;-2,8687398907437363
11:51:01.481;0;Wrist;1;56103;9,79;0;0;0;-0,20816065837485123;-0,34454178246215705;0,11484726082071901;1,0376293221839046;1,7090365306558428;-1,8921475875118259
11:51:01.481;0;Wrist;1;56104;9,79;0;0;0;-0,4665669728690451;-0,32420423582605973;0,21055330653744622;0,5798516800439466;-0,7019257179479355;-0,8850367748039186
11:51:01.504;0;Mov;1;9741;7,18;0;0;0;-0,26199529418889433;0,12800683316579944;0,01674855762788686;2,6245918149357585;3,5401470992156745;2,410962248603778
11:51:01.504;0;Mov;1;9742;7,18;0;0;0;-0,23567614949873347;0,22371287888252664;0,117239908983314;2,1057771538438064;1,403851435895871;2,1057771538438064
11:51:01.504;0;Mov;1;9743;7,18;0;0;0;0,05383465071565905;0,2787438760319071;0,16150395214697713;0,36622211371196634;-1,8616290780358287;1,8921475875118259
11:51:01.504;0;Mov;1;9744;7,18;0;0;0;0,010766930701942408;0,2859218056180761;0,22610554194673757;-1,586962492751854;-2,71614734336375;1,5259254737998595
11:51:01.504;0;Mov;1;9745;7,18;0;0;0;0,0119632557145909;0,13518479255520036;0,11006195704472106;-2,807702871791742;-3,7842951750236518;0,9155552842799157
11:51:01.541;0;Wrist;1;56105;9,93;0;0;0;-0,13518479255520036;-0,2703695851104007;0,18543046357615894;0,12207403790398877;-4,577776421399578;-0,12207403790398877
11:51:01.541;0;Wrist;1;56106;9,93;0;0;0;0,06579790643024995;-0,24285409398651844;0,1411664204124958;0,18311105685598317;-6,256294442579424;-0,09155552842799158
11:51:01.541;0;Wrist;1;56107;9,93;0;0;0;-0,026319163317180778;-0,3696645956202124;0,14236275194460127;0,7629627368999298;-7,110812707907346;-0,12207403790398877
11:51:01.541;0;Wrist;1;56108;9,93;0;0;0;0,013159581658590389;-0,45938904328287605;0,0717795342875454;1,3428144169438765;-8,636738181707205;0,36622211371196634
11:51:01.541;0;Wrist;1;56109;9,93;-0,5168126587916196;0;0;0,0346934430624752;-0,5168126587916196;0,0358897671437727;1,6479995117038484;-9,88799707022309;1,8311105685598315
11:51:01.564;0;Mov;1;9746;7,48;0;0;0;-0,0598162785729545;0,2739585499034852;0,12082888867801446;-3,173924985503708;-4,24207281716361;0
11:51:01.564;0;Mov;1;9747;7,48;0;0;0;-0,058619954491657;0,20217903051755579;0,0023926511894857296;-3,7537766655476545;-5,920590838343455;-0,8239997558519242
11:51:01.564;0;Mov;1;9748;7,48;0;0;0;0,052638326634361556;0,23806879766132846;-0,019141209515885837;-3,47911008026368;-7,019257179479355;-1,922666096987823
11:51:01.564;0;Mov;1;9749;7,48;0;0;0;0,2787438760319071;0,13757744071779535;-0,07656483806354335;-3,1128879665517135;-8,02636799218726;-2,6551103244117558
11:51:01.564;0;Mov;1;9750;7,48;0;0;0;0,4007690664387951;0,16270028367908262;-0,08852809377813425;-2,410962248603778;-7,110812707907346;-3,0823694570757163
11:51:01.604;0;Wrist;1;56110;10,1;-0,525186949713126;0;0;0,08015381775824382;-0,525186949713126;0,003588976900647469;2,1362956633198036;-10,773033845027008;3,814813684499649
11:51:01.604;0;Wrist;1;56111;10,1;0;0;0;0,19500107112815485;-0,3971801016457106;-0,11006195704472106;1,8921475875118259;-11,169774468214973;6,256294442579424
11:51:01.604;0;Wrist;1;56112;10,1;0;0;0;0,2751548814355907;-0,2273018585772271;-0,16150395214697713;0,793481246375927;-10,925626392406995;8,02636799218726
11:51:01.604;0;Wrist;1;56113;10,1;0;0;0;0,3517197120483261;0,0239265114291818;-0,13279214439260537;-0,7629627368999298;-9,216589861751151;8,667256691183203
11:51:01.604;0;Wrist;1;56114;10,1;0;0;0;0,34813074725524157;0,1961974026602603;-0,031104465230476736;-2,685628833887753;-6,591998046815394;7,599108859523301
11:51:01.626;0;Mov;1;9751;7,77;0;0;0;0,20576799531064027;0,028711815205179753;-0,027515489261180266;-1,7700735496078372;-4,791405987731559;-3,69273964659566
11:51:01.626;0;Mov;1;9752;7,77;0;0;0;0,13757744071779535;-0,06699423051154745;0,010766930701942408;-1,1902218695638904;-4,272591326639607;-3,845332193975646
11:51:01.626;0;Mov;1;9753;7,77;0;0;0;0,10288399765532014;-0,0837427900021363;0,028711815205179753;-0,15259254737998595;-4,24207281716361;-3,814813684499649
11:51:01.626;0;Mov;1;9754;7,77;0;0;0;0,10408032918742562;-0,13757744071779535;0,0239265114291818;1,0071108127079074;-4,608294930875576;-3,7842951750236518
11:51:01.626;0;Mov;1;9755;7,77;0;0;0;0,27276224817461164;-0,0239265114291818;-0,019141209515885837;2,166814172795801;-5,554368724631489;-4,089480269783624
11:51:01.663;0;Wrist;1;56115;10,2;0;0,5897884948080385;0;0,5897884948080385;0,1985900508228553;-0,28472550388920254;-4,608294930875576;-3,326517532883694;5,523850215155492
11:51:01.663;0;Wrist;1;56116;10,2;0;0,9546678537095248;0;0,9546678537095248;0,2596026609279153;-0,3218115727618488;-5,4322946867275;1,5564439832758568;2,5940733054597613
11:51:01.663;0;Wrist;1;56117;10,2;0;0,5897884948080385;0;0,5897884948080385;0,3852168459311197;-0,2153386028626362;-4,333628345591602;9,7964415417951;-1,4954069643238623
11:51:01.663;0;Wrist;1;56118;10,2;0;0;0;0,22012391408944212;0,13997008888039034;-0,03708609495047418;-3,5706656086916717;15,076143681142613;-6,500442518387402
11:51:01.663;0;Wrist;1;56119;10,2;0;0;0;0,15671865582178715;-0,10886562551261558;0,07417218990094836;-1,73955504013184;17,303994872890406;-9,67436750389111
11:51:01.684;0;Mov;1;9756;7,98;0;0;0;0,32061527103297527;-0,20337534714804528;-0,004785302378971459;2,3499252296517836;-4,272591326639607;-3,326517532883694
11:51:01.684;0;Mov;1;9757;7,98;0;0;0;0,23567614949873347;-0,22012391408944212;0,028711815205179753;1,73955504013184;-3,1434064760277107;-2,3499252296517836
11:51:01.684;0;Mov;1;9758;7,98;0;0;0;0,19021577480296487;-0,20337534714804528;0,0466566987770661;1,0681478316599018;-2,7771843623157446;-1,2512588885158848
11:51:01.684;0;Mov;1;9759;7,98;0;0;0;0,20696432684274574;-0,24046144582392345;0,020337535459885328;0,4272591326639607;-2,1362956633198036;-0,15259254737998595
11:51:01.684;0;Mov;1;9760;7,98;0;0;0;0,22132023071993165;-0,16868191153637807;-0,0478530228583636;-0,15259254737998595;-1,8311105685598315;1,0681478316599018
11:51:01.693;0;Wrist;1;56120;9,96;0;0;0;-0,01794488357188635;-0,0933133975541322;0,11604358490201651;0,3051850947599719;18,25006866664632;-11,383404034546952
11:51:01.693;0;Wrist;1;56121;9,96;0;0;0;-0,07895748622613834;-0,2440504255186239;0,23328348643452254;3,357036042359691;16,937772759178443;-12,695699942014832
11:51:01.693;0;Wrist;1;56122;9,96;0;0;0;-0,07656483806354335;-0,3935911070493942;0,22610554194673757;4,699850459303567;14,862514114810633;-12,359996337778863
11:51:01.693;0;Wrist;1;56123;9,96;0;0;0;-0,10168767357402264;-0,3505234103194525;0,1890194432708594;5,005035554063539;12,848292489394819;-10,559404278695029
11:51:01.693;0;Wrist;1;56124;9,96;-0,537150205427717;0;0;-0,17346720786156805;-0,537150205427717;0,2739585499034852;4,24207281716361;10,254219183935056;-8,117923520615253
11:51:01.743;0;Mov;1;9761;8,19;0;0;0;0,09929502541142765;-0,06220893046095347;0,027515489261180266;-0,9155552842799157;-1,403851435895871;1,8005920590838342
11:51:01.743;0;Mov;1;9762;8,19;0;0;0;0,027515489261180266;0,11604358490201651;0,0933133975541322;-1,7090365306558428;-2,0142216254158147;1,3428144169438765
11:51:01.743;0;Mov;1;9763;8,19;0;0;0;0,12441786092190694;0,09929502541142765;0,06340525826765496;-2,4414807580797753;-2,838221381267739;1,0681478316599018
11:51:01.743;0;Mov;1;9764;8,19;0;0;0;0,1064729773500206;0,06460158234895245;0,04187139500106815;-2,9297769096957307;-2,9602954191717274;0,4882961516159551
11:51:01.743;0;Mov;1;9765;8,19;0;0;0;0,0239265114291818;0,08493911408343378;0,06579790643024995;-3,173924985503708;-3,173924985503708;0,3357036042359691
11:51:01.810;0;Wrist;1;56125;10,69;-0,6340525528733176;0;0;-0,24046144582392345;-0,6340525528733176;0,27635121296769616;3,5706656086916717;7,110812707907346;-5,645924253059481
11:51:01.811;0;Wrist;1;56126;10,69;-0,6005554487937559;0;0;-0,2009826989854503;-0,6005554487937559;0,2739585499034852;3,021332438123722;3,9979247413556322;-3,2349620044557024
11:51:01.811;0;Wrist;1;56127;10,69;-0,5132236939985351;0;0;-0,19021577480296487;-0,5132236939985351;0,234479817966628;2,807702871791742;1,281777397991882;-0,9765923032319102
11:51:01.811;0;Wrist;1;56128;10,69;0;0;0;-0,1543260076591922;-0,3828241828669088;0,20217903051755579;2,838221381267739;-1,1902218695638904;0,9460737937559129
11:51:01.812;0;Wrist;1;56129;10,69;0;0;0;-0,08254646592083881;-0,26199529418889433;0,15193334459498123;3,1128879665517135;-3,295999023407697;2,288888210699789
11:51:01.814;0;Wrist;1;56130;10,18;0;0;0;-0,07656483806354335;-0,21055330653744622;0,12322153684060945;3,1434064760277107;-4,516739402447585;3,1434064760277107
11:51:01.814;0;Wrist;1;56131;10,18;0;0;0;-0,07776116214484084;-0,15911130398438214;0,11006195704472106;2,563554795983764;-5,523850215155492;3,47911008026368
11:51:01.814;0;Wrist;1;56132;10,18;0;0;0;-0,058619954491657;-0,1770561875562685;0,11006195704472106;1,9837031159398175;-6,591998046815394;3,662221137119663
11:51:01.814;0;Wrist;1;56133;10,18;0;0;0;-0,028711815205179753;-0,1531296761270867;0,12082888867801446;1,4343699453718681;-7,843256935331278;3,7232581560716573
11:51:01.814;0;Wrist;1;56134;10,18;0;0;0;0,00598162785729545;-0,028711815205179753;0,12202521275931195;0,9765923032319102;-8,850367748039186;3,47911008026368
11:51:01.840;0;Wrist;1;56135;9,94;0;0;0;0,04306772280776963;-0,028711815205179753;0,12561418500320445;0,030518509475997192;-9,582811975463118;2,8687398907437363
11:51:01.840;0;Wrist;1;56136;9,94;0;0;0;0,02273018548518231;-0,13757744071779535;0,1543260076591922;-0,5493331705679495;-10,254219183935056;2,2278511917477952
11:51:01.840;0;Wrist;1;56137;9,94;0;0;0;0,1076693014313181;-0,12800683316579944;0,10886562551261558;-1,0376293221839046;-11,261329996642964;1,9531846064638203
11:51:01.840;0;Wrist;1;56138;9,94;0;0;0;0,1985900508228553;0,040675070919770656;0,08733176969683676;-1,922666096987823;-11,84118167668691;1,7090365306558428
11:51:01.840;0;Wrist;1;56139;9,94;0;0;0;0,363682967762917;-0,014355907602589877;0,025122837373181287;-1,0376293221839046;-11,322367015594958;0,793481246375927
11:51:01.923;0;Mov;1;9766;9,58;0;0;0;0,004785302378971459;0,18423414694566942;0,05383465071565905;-3,295999023407697;-4,272591326639607;-0,3967406231879635
11:51:01.923;0;Mov;1;9767;9,58;0;0;0;0,021533861403884816;0,1674855800042726;0,06340525826765496;-3,1434064760277107;-4,943998535111545;-1,3122959074678793
11:51:01.923;0;Mov;1;9768;9,58;0;0;0;-0,0346934430624752;0,12082888867801446;0,0693868861249504;-2,7771843623157446;-5,096591082491531;-2,1057771538438064
11:51:01.923;0;Mov;1;9769;9,58;0;0;0;0;0,09092074194072924;0,08972441785943175;-2,197332682271798;-5,493331705679495;-2,71614734336375
11:51:01.923;0;Mov;1;9770;9,58;0;0;0;0,0011963255947428648;-0,07417218990094836;0,05024567474636257;-1,8311105685598315;-6,0121463667714465;-3,204443494979705
11:51:01.925;0;Mov;1;9771;9,14;0;0;0;-0,010766930701942408;-0,052638326634361556;0,07417218990094836;-1,4343699453718681;-6,317331461531419;-3,5401470992156745
11:51:01.925;0;Mov;1;9772;9,14;0;0;0;-0,003588976900647469;-0,0933133975541322;0,10527665326872311;-1,1902218695638904;-7,446516312143315;-3,326517532883694
11:51:01.925;0;Mov;1;9773;9,14;0;0;0;0,028711815205179753;-0,16628926337378308;0,06579790643024995;-0,9155552842799157;-8,362071596423231;-2,8992584002197335
11:51:01.925;0;Mov;1;9774;9,14;0;0;0;0,08613544561553926;-0,18303781541356395;0,05383465071565905;-0,4272591326639607;-9,186071352275155;-2,410962248603778
11:51:01.925;0;Mov;1;9775;9,14;0;0;0;0,20576799531064027;-0,26079899246002075;-0,0478530228583636;0,3967406231879635;-9,735404522843105;-1,8921475875118259
11:51:01.927;0;Mov;1;9776;8,74;0;0;0;0,3170262764366588;-0,22371287888252664;-0,00837427881394343;1,2512588885158848;-8,606219672231209;-1,0681478316599018
11:51:01.927;0;Mov;1;9777;8,74;0;0;0;0,3624866660340434;-0,007177953801294938;-0,0346934430624752;1,4648884548478653;-7,477034821619312;-0,27466658528397475
11:51:01.927;0;Mov;1;9778;8,74;0;0;0;0,22012391408944212;0,06699423051154745;0,013159581658590389;1,281777397991882;-5,76799829096347;0,09155552842799158
11:51:01.927;0;Mov;1;9779;8,74;0;0;0;0,2799401777607807;0,02273018548518231;0,027515489261180266;0,8850367748039186;-5,066072573015534;0,36622211371196634
11:51:01.927;0;Mov;1;9780;8,74;0;0;0;0,30745568378627885;0,1890194432708594;-0,03349711525577372;0,4272591326639607;-4,119998779259621;0,12207403790398877
11:51:01.931;0;Wrist;1;56140;10,32;0;0,5658619833788567;0;0,5658619833788567;-0,019141209515885837;-0,07297585836884289;-1,0376293221839046;-9,918515579699088;0,18311105685598317
11:51:01.931;0;Wrist;1;56141;10,32;0;0,6771203092097232;0;0,6771203092097232;-0,0837427900021363;-0,13279214439260537;-1,4343699453718681;-6,622516556291391;-0,7324442274239327
11:51:01.931;0;Wrist;1;56142;10,32;0;0,5754326356357006;0;0,5754326356357006;-0,1794488357188635;-0,07776116214484084;-2,0142216254158147;-2,380443739127781;-1,6174810022278512
11:51:01.931;0;Wrist;1;56143;10,32;0;0;0;0,39598377011360514;-0,36487929929502244;0;-1,8616290780358287;1,1902218695638904;-1,8921475875118259
11:51:01.932;0;Wrist;1;56144;10,32;0;0;0;0,234479817966628;-0,3708609271523179;0,019141209515885837;-2,563554795983764;3,021332438123722;-1,4648884548478653
11:51:01.933;0;Wrist;1;56145;9,88;-0,5850032282860805;0;0;0,00837427881394343;-0,5850032282860805;0,01794488357188635;-3,47911008026368;2,8992584002197335;-0,4882961516159551
11:51:01.933;0;Wrist;1;56146;9,88;0;0;0;-0,20935697500534073;-0,44383679297196876;0,0693868861249504;-4,577776421399578;1,586962492751854;0,12207403790398877
11:51:01.933;0;Wrist;1;56147;9,88;0;0;0;-0,10168767357402264;-0,44144412990775783;0,0011963255947428648;-5,035554063539537;-1,0376293221839046;0,7324442274239327
11:51:01.933;0;Wrist;1;56148;9,88;-0,6627643904309214;0;0;0,17466353939367352;-0,6627643904309214;0,058619954491657;-4,119998779259621;-2,3194067201757864;1,73955504013184
11:51:01.933;0;Wrist;1;56149;9,88;0;-0,5622730185857723;0;-0,5622730185857723;-0,38760947919209876;0,10886562551261558;-1,8921475875118259;-0,8239997558519242;3,051850947599719
11:51:01.987;0;Mov;1;9781;8,89;0;0;0;0,40316172950300605;0,33975645633373514;0,03349711525577372;-0,3051850947599719;-2,1057771538438064;-0,45777764213995786
11:51:01.988;0;Mov;1;9782;8,89;0;1,0826746421704765;0;1,0826746421704765;0,24046144582392345;-0,4139286536854915;-1,1597033600878932;-0,5798516800439466;0,5798516800439466
11:51:01.988;0;Mov;1;9783;8,89;0;0,7297585985900449;0;0,7297585985900449;0,2153386028626362;-0,24285409398651844;-1,1902218695638904;9,155552842799157;0,8239997558519242
11:51:01.988;0;Mov;1;9784;8,89;0;0;0;0,06101260637965598;0,27276224817461164;-0,009570604757942918;-1,1291848506118962;14,709921567430646;0,36622211371196634
11:51:01.988;0;Mov;1;9785;8,89;0;0;0;-0,4426404614398633;0,0957060457167272;0,1411664204124958;-2,2278511917477952;13,824884792626728;0,27466658528397475
11:51:01.989;0;Mov;1;9786;8,53;0;0;0;-0,25720999786370435;0,17585985602416304;0,11006195704472106;-3,6011841181676685;8,423108615375225;0,24414807580797754
11:51:01.989;0;Mov;1;9787;8,53;0;0;0;0,1985900508228553;0,29549242807168796;-0,0837427900021363;-4,211554307687613;4,943998535111545;0
11:51:01.989;0;Mov;1;9788;8,53;0;0;0;-0,040675070919770656;0,05742363041035951;-0,040675070919770656;-3,814813684499649;5,829035309915464;0,15259254737998595
11:51:01.989;0;Mov;1;9789;8,53;0;0;0;0,004785302378971459;-0,06699423051154745;-0,052638326634361556;-4,0284432508316295;4,24207281716361;1,281777397991882
11:51:01.989;0;Mov;1;9790;8,53;0;0;0;0,3469344157231361;0,22610554194673757;-0,11125828112601856;-3,9979247413556322;2,3499252296517836;1,6479995117038484
11:51:01.995;0;Wrist;1;56150;10,01;0;-1,250160222174749;0;-1,250160222174749;-0,4306772057252724;0,2799401777607807;-1,281777397991882;-5,066072573015534;4,7303689687795645
11:51:01.995;0;Wrist;1;56151;10,01;-0,8051270976706748;0;0;-0,3385601546048616;-0,8051270976706748;0,32540056735816525;-1,281777397991882;-14,099551377910704;7,293923764763329
11:51:01.995;0;Wrist;1;56152;10,01;-0,9654347480887784;0;0;0,07656483806354335;-0,9654347480887784;0,08972441785943175;-0,12207403790398877;-16,84621723075045;9,949034089175084
11:51:01.997;0;Wrist;1;56153;10,01;-0,7512924469550157;0;0;0,12322153684060945;-0,7512924469550157;-0,04904935066506508;0,061037018951994385;-17,548142948698384;13,031403546250802
11:51:01.997;0;Wrist;1;56154;10,01;0;0,579021600428785;0;0,579021600428785;0,07776116214484084;-0,1543260076591922;0,030518509475997192;-16,022217474898525;14,221625415814692
11:51:02.014;0;Mov;1;9791;8,39;0;0;0;0,11365092928861355;0,09092074194072924;0,056227302603658026;-3,0823694570757163;4,089480269783624;1,281777397991882
11:51:02.014;0;Mov;1;9792;8,39;0;0;0;-0,3014740559289834;-0,23089083827192755;0,04306772280776963;-1,9837031159398175;3,1434064760277107;0,9155552842799157
11:51:02.014;0;Mov;1;9793;8,39;0;0;0;0,22849819010933256;0,14475540010719626;0,15193334459498123;-0,9765923032319102;-0,3357036042359691;0,640888698995941
11:51:02.014;0;Mov;1;9794;8,39;0;0;0;0,358897671437727;-0,03230079117447623;-0,01794488357188635;1,4343699453718681;0,3967406231879635;1,1597033600878932
11:51:02.014;0;Mov;1;9795;8,39;0;0;0;0,08972441785943175;-0,363682967762917;-0,06699423051154745;3,9979247413556322;2,9297769096957307;2,8992584002197335
11:51:02.050;0;Wrist;1;56155;10,05;0;0,6065370766510514;0;0,6065370766510514;0,41153599062128055;-0,3469344157231361;1,6479995117038484;-11,047700430310984;11,719107638782923
11:51:02.051;0;Wrist;1;56156;10,05;0;0,6053407749221777;0;0,6053407749221777;-0,15791497245227668;-0,2249092104146321;3,8758507034516434;-7,507553331095309;7,904293954283273
11:51:02.052;0;Wrist;1;56157;10,05;-0,5287759145062105;0;0;0,44862208929715874;-0,5287759145062105;-0,019141209515885837;6,500442518387402;-3,2349620044557024;6,378368480483413
11:51:02.052;0;Wrist;1;56158;10,05;0;0;0;0,44024782817888425;-0,3660756308271279;0,0023926511894857296;8,789330729087192;0,3051850947599719;7,110812707907346
11:51:02.052;0;Wrist;1;56159;10,05;0;0;0;-0,05742363041035951;0,16628926337378308;0,0011963255947428648;9,88799707022309;4,333628345591602;7,477034821619312
11:51:02.074;0;Mov;1;9796;8,53;0;0;0;-0,28352917235709707;-0,49886777521973324;0,1292031646979049;4,913480025635548;3,1128879665517135;4,699850459303567
11:51:02.074;0;Mov;1;9797;8,53;0;0;0;0,019141209515885837;-0,06460158234895245;0,32540056735816525;4,791405987731559;-0,24414807580797754;3,814813684499649
11:51:02.074;0;Mov;1;9798;8,53;0;0;0;0,26917325357829525;-0,08972441785943175;0,11245460520731605;5,890072328867458;-1,8616290780358287;4,119998779259621
11:51:02.074;0;Mov;1;9799;8,53;0;0;0;0,08135014183954131;-0,2524247015385144;-0,04904935066506508;6,347849971007416;-0,3051850947599719;4,4557023834955904
11:51:02.074;0;Mov;1;9800;8,53;0;0;0;0,37205725868442335;-0,0478530228583636;0,06101260637965598;4,760887478255562;-1,0071108127079074;4,8829615161595505
11:51:02.081;0;Wrist;1;56160;9,89;0;0;0;-0,31104464857936337;0,22012391408944212;0,06101260637965598;8,972441785943175;3,7232581560716573;6,4394054994354075
11:51:02.081;0;Wrist;1;56161;9,89;0;0;0;-0,4761375953226569;0,36487929929502244;0,09690236979802469;7,38547929319132;1,6174810022278512;5,249183629871517
11:51:02.081;0;Wrist;1;56162;9,89;0;0;0;-0,020337535459885328;0,4019653979709006;-0,09092074194072924;4,943998535111545;-1,586962492751854;4,150517288735618
11:51:02.081;0;Wrist;1;56163;9,89;0;0;0;0,468959635933256;0,4019653979709006;-0,3265968988902707;2,9297769096957307;-2,197332682271798;2,3499252296517836
11:51:02.081;0;Wrist;1;56164;9,89;0;0,6304635880802332;0;0,6304635880802332;0,4928861473624378;-0,4342662003215888;1,281777397991882;0,12207403790398877;-0,4882961516159551
11:51:02.104;0;Mov;1;9801;8,43;0;0,7046357854319895;0;0,7046357854319895;0,1531296761270867;-0,031104465230476736;3,4180730613116856;-0,27466658528397475;5,4322946867275
11:51:02.104;0;Mov;1;9802;8,43;0;0,7094210519539476;0;0,7094210519539476;-0,0957060457167272;-0,32540056735816525;2,807702871791742;2,9297769096957307;7,293923764763329
11:51:02.104;0;Mov;1;9803;8,43;0;0;0;0,028711815205179753;-0,15671865582178715;-0,021533861403884816;2,1057771538438064;8,056886501663259;7,293923764763329
11:51:02.104;0;Mov;1;9804;8,43;0;0;0;0,06579790643024995;0,119632557145909;-0,03349711525577372;1,9531846064638203;5,523850215155492;6,714072084719382
11:51:02.104;0;Mov;1;9805;8,43;0;0;0;0,14236275194460127;-0,21174962316793572;-0,20816065837485123;2,807702871791742;5,462813196203498;6,8666646320993685
11:51:02.146;0;Wrist;1;56165;10;0;0,8242683425778985;0;0,8242683425778985;0,1292031646979049;-0,2990813928647725;0,45777764213995786;3,7842951750236518;-4,425183874019593
11:51:02.146;0;Wrist;1;56166;10;0;0,5754326356357006;0;0,5754326356357006;-0,12202521275931195;-0,21773125102523117;0,6103701895199438;9,88799707022309;-7,38547929319132
11:51:02.147;0;Wrist;1;56167;10;0;0;0;-0,19260842296555986;0,058619954491657;0,03708609495047418;0,21362956633198035;13,214514603106783;-8,392590105899227
11:51:02.147;0;Wrist;1;56168;10;0;0;0;-0,3170262764366588;-0,027515489261180266;0,1674855800042726;0,27466658528397475;10,803552354503006;-9,491256447035127
11:51:02.147;0;Wrist;1;56169;10;0;0;0;-0,09929502541142765;-0,35770133990562153;0,16389660030957212;2,166814172795801;8,423108615375225;-10,010071108127079
11:51:02.193;0;Mov;1;9806;8,77;0;0;0;-0,1315958128604999;-0,415124985217597;-0,009570604757942918;2,7771843623157446;7,782219916379284;6,4394054994354075
11:51:02.193;0;Mov;1;9807;8,77;0;0;0;0,1435590685750908;-0,4390514966467788;-0,06340525826765496;2,044740134891812;4,608294930875576;7,782219916379284
11:51:02.193;0;Mov;1;9808;8,77;0;0;0;0,26199529418889433;-0,21653493439474167;-0,1794488357188635;1,6174810022278512;3,662221137119663;8,087405011139255
11:51:02.193;0;Mov;1;9809;8,77;0;0;0;0,20816065837485123;0,040675070919770656;-0,04546037097036462;-0,061037018951994385;4,058961760307627;8,514664143803216
11:51:02.193;0;Mov;1;9810;8,77;0;0;0;-0,24524674214911343;-0,12082888867801446;-0,1292031646979049;-1,9531846064638203;3,1434064760277107;8,331553086947233
11:51:02.206;0;Wrist;1;56170;10,08;0;0;0;-0,13638112408730582;-0,4378551651146733;0,2249092104146321;5,706961272011475;8,819849238563188;-9,582811975463118
11:51:02.206;0;Wrist;1;56171;10,08;0;-0,5969664840006714;0;-0,5969664840006714;-0,09809870133013016;0,3349711600085452;10,620441297647023;7,782219916379284;-8,758812219611194
11:51:02.207;0;Wrist;1;56172;10,08;0;-0,5562913907284768;0,5108310309343241;-0,5562913907284768;0,02990813928647725;0,5108310309343241;15,564439832758568;0,6103701895199438;-7,538071840571306
11:51:02.207;0;Wrist;1;56173;10,08;0;0;0;-0,16509293184167761;0,04546037097036462;0,4809228916478469;19,98962370677816;-8,636738181707205;-4,913480025635548
11:51:02.207;0;Wrist;1;56174;10,08;0;0;0;0,09092074194072924;0,05144199882766007;0,11365092928861355;20,87466048158208;-13,58073671681875;-3,5096285897396773
11:51:02.224;0;Mov;1;9811;8,68;0;0;0;-0,3289895321512497;-0,05742363041035951;0,0346934430624752;-4,150517288735618;2,1057771538438064;7,17184972685934
11:51:02.224;0;Mov;1;9812;8,68;0;0;0;0,17227089123107853;0,18423414694566942;-0,11006195704472106;-7,17184972685934;0,9460737937559129;6,347849971007416
11:51:02.224;0;Mov;1;9813;8,68;0;0;0;-0,38043154960592973;-0,16389660030957212;-0,18782311173875393;-9,094515823847164;4,425183874019593;6,164738914151433
11:51:02.224;0;Mov;1;9814;8,68;0;0;0;-0,14954069643238624;-0,1914120914334544;0,2584063293958098;-9,216589861751151;6,74459059419538;4,760887478255562
11:51:02.224;0;Mov;1;9815;8,68;0;0;0;0,23806879766132846;0,05503097852236053;0,20816065837485123;-8,972441785943175;-1,4954069643238623;2,7466658528397474
11:51:02.241;0;Wrist;1;56175;9,97;0;0;0;0,3624866660340434;0,14236275194460127;0,10408032918742562;19,806512649922176;-13,275551622058778;-3,47911008026368
11:51:02.241;0;Wrist;1;56176;9,97;0;0,5933775192075869;0;0,5933775192075869;0,14954069643238624;-0,23328348643452254;17,822809533982362;-11,62755211035493;-3,47911008026368
11:51:02.242;0;Wrist;1;56177;9,97;0;0;0;0,14475540010719626;0,0346934430624752;-0,19021577480296487;11,780144657734915;-5,1576281014435255;-5,798516800439467
11:51:02.242;0;Wrist;1;56178;9,97;0;0;0;0,1531296761270867;-0,119632557145909;-0,06340525826765496;6,164738914151433;-2,6245918149357585;-7,93481246375927
11:51:02.242;0;Wrist;1;56179;9,97;0;0;0;0,1339884610230949;-0,3708609271523179;-0,007177953801294938;2,533036286507767;-1,1291848506118962;-8,362071596423231
11:51:02.255;0;Mov;1;9816;8,6;0;0;0;0,007177953801294938;0,17466353939367352;-0,12681051653530992;-7,38547929319132;-6,530961027863399;-0,09155552842799158
11:51:02.255;0;Mov;1;9817;8,6;0;0;0;0,14236275194460127;0,11604358490201651;0,18423414694566942;-4,1810357982116155;-3,5706656086916717;-0,5798516800439466
11:51:02.255;0;Mov;1;9818;8,6;0;0;0;0,22969452164143803;0,09092074194072924;0,04426404688906713;-1,6785180211798456;-4,1810357982116155;-0,09155552842799158
11:51:02.255;0;Mov;1;9819;8,6;0;0;0;-0,12800683316579944;0,08972441785943175;0,11006195704472106;0,5798516800439466;-1,8921475875118259;-0,640888698995941
11:51:02.255;0;Mov;1;9820;8,6;0;0;0;0,21653493439474167;-0,1531296761270867;0,2464430736812189;2,075258644367809;-1,1597033600878932;0,640888698995941
11:51:02.291;0;Wrist;1;56180;9,96;0;0;0;0,27276224817461164;-0,34813074725524157;-0,00837427881394343;-0,793481246375927;-0,15259254737998595;-7,812738425855281
11:51:02.291;0;Wrist;1;56181;9,96;0;0;0;0,21653493439474167;-0,2942960965395825;0,07895748622613834;-3,204443494979705;1,9531846064638203;-7,93481246375927
11:51:02.291;0;Wrist;1;56182;9,96;0;0;0;0,1961974026602603;-0,16868191153637807;-0,09809870133013016;-4,364146855067599;3,295999023407697;-8,728293710135198
11:51:02.291;0;Wrist;1;56183;9,96;0;0;0;-0,117239908983314;-0,1866267951082644;0,12681051653530992;-4,791405987731559;4,486220892971588;-9,002960295419172
11:51:02.291;0;Wrist;1;56184;9,96;0;0;0;-0,040675070919770656;-0,18543046357615894;0,10886562551261558;-5,981627857295449;2,197332682271798;-8,48414563432722
11:51:02.314;0;Mov;1;9821;8,7;0;0;0;0,15671865582178715;-0,06579790643024995;-0,00598162785729545;1,6785180211798456;-5,615405743583484;0,7324442274239327
11:51:02.314;0;Mov;1;9822;8,7;0;0;0;0,13638112408730582;0,056227302603658026;-0,019141209515885837;1,281777397991882;-6,0121463667714465;1,0376293221839046
11:51:02.314;0;Mov;1;9823;8,7;0;0;0;0,27276224817461164;-0,025122837373181287;-0,03349711525577372;3,1128879665517135;-5,127109591967528;3,7537766655476545
11:51:02.314;0;Mov;1;9824;8,7;0;0;0;0,32420423582605973;0,3050630207220679;0,1818414838814585;1,9837031159398175;-2,075258644367809;3,3875545518356884
11:51:02.314;0;Mov;1;9825;8,7;0;0;0;0,12322153684060945;0,2009826989854503;0,013159581658590389;0,4882961516159551;-2,0142216254158147;3,2349620044557024
11:51:02.380;0;Wrist;1;56185;10,22;0;0;0;0,11245460520731605;-0,26438795725310527;0,07776116214484084;-6,805627613147374;1,403851435895871;-8,270516067995239
11:51:02.381;0;Wrist;1;56186;10,22;0;0;0;0,13997008888039034;-0,32300790429395426;0,06460158234895245;-6,897183141575366;1,922666096987823;-8,453627124851222
11:51:02.381;0;Wrist;1;56187;10,22;0;0;0;-0,03230079117447623;-0,3732535902165288;0,1292031646979049;-5,890072328867458;2,3499252296517836;-8,423108615375225
11:51:02.381;0;Wrist;1;56188;10,22;0;0;0;-0,12800683316579944;-0,2596026609279153;0,08493911408343378;-5,4322946867275;1,3733329264198737;-7,629627368999298
11:51:02.381;0;Wrist;1;56189;10,22;0;0;0;-0,04187139500106815;-0,3828241828669088;0,12561418500320445;-4,821924497207556;-0,12207403790398877;-7,232886745811334
11:51:02.382;0;Wrist;1;56190;9,91;-0,5144199957274087;0;0;-0,038282419031771674;-0,5144199957274087;0,17585985602416304;-4,211554307687613;-1,403851435895871;-5,584887234107486
11:51:02.382;0;Wrist;1;56191;9,91;0;0;0;0,0119632557145909;-0,3780388865417188;0,11125828112601856;-4,089480269783624;-2,5940733054597613;-3,4180730613116856
11:51:02.382;0;Wrist;1;56192;9,91;0;0;0;0,11604358490201651;-0,32061527103297527;0,10168767357402264;-3,8758507034516434;-3,357036042359691;-1,9837031159398175
11:51:02.382;0;Wrist;1;56193;9,91;0;0;0;0,19021577480296487;-0,27276224817461164;0,01794488357188635;-3,051850947599719;-3,1434064760277107;-1,3733329264198737
11:51:02.382;0;Wrist;1;56194;9,91;0;0;0;0,0466566987770661;-0,25362103307061984;0,06579790643024995;-2,0142216254158147;-1,9531846064638203;-1,098666341135899
11:51:02.404;0;Mov;1;9826;8,99;0;0;0;0,17346720786156805;0,22251656225203711;0,08254646592083881;0,3357036042359691;-0,9155552842799157;3,1434064760277107
11:51:02.404;0;Mov;1;9827;8,99;0;0;0;0,07656483806354335;-0,07536851398224585;-0,11604358490201651;0,18311105685598317;-0,3967406231879635;3,204443494979705
11:51:02.404;0;Mov;1;9828;8,99;0;0;0;-0,10168767357402264;-0,2895108002143925;0,08733176969683676;0,3357036042359691;0,8850367748039186;3,0823694570757163
11:51:02.404;0;Mov;1;9829;8,99;0;0;0;0,32420423582605973;-0,0837427900021363;-0,12322153684060945;0,640888698995941;-2,044740134891812;3,051850947599719
11:51:02.405;0;Mov;1;9830;8,99;0;0;0;-0,07536851398224585;0,22371287888252664;0,10049134949272515;0,4882961516159551;0,8239997558519242;1,6174810022278512
11:51:02.405;0;Mov;1;9831;8,73;0;0;0;-0,01674855762788686;0,16030763551648763;0,21055330653744622;0,3357036042359691;1,2512588885158848;2,0142216254158147
11:51:02.405;0;Mov;1;9832;8,73;0;0;0;0,2153386028626362;0,1387737722499008;-0,027515489261180266;-0,15259254737998595;0,061037018951994385;1,4954069643238623
11:51:02.405;0;Mov;1;9833;8,73;0;0;0;0,05383465071565905;-0,1315958128604999;-0,0023926511894857296;-0,6103701895199438;1,403851435895871;1,7700735496078372
11:51:02.406;0;Mov;1;9834;8,73;0;0;0;0,11006195704472106;0,013159581658590389;0,015552232615238368;-0,7324442274239327;1,098666341135899;2,1362956633198036
11:51:02.406;0;Mov;1;9835;8,73;0;0;0;0,15791497245227668;0,2129459547000412;-0,0717795342875454;-1,098666341135899;0,5493331705679495;2,197332682271798
11:51:02.463;0;Mov;1;9836;8,81;0;0;0;0,040675070919770656;0,3026703874610889;0,0598162785729545;-1,6174810022278512;1,0681478316599018;1,6174810022278512
11:51:02.463;0;Mov;1;9837;8,81;0;0;0;0,13997008888039034;0,21653493439474167;0,020337535459885328;-1,8616290780358287;0,7324442274239327;0,5493331705679495
11:51:02.463;0;Mov;1;9838;8,81;0;0;0;0,025122837373181287;-0,026319163317180778;0,027515489261180266;-1,7700735496078372;1,7090365306558428;-0,15259254737998595
11:51:02.463;0;Mov;1;9839;8,81;0;0;0;0,026319163317180778;-0,26917325357829525;-0,019141209515885837;-1,098666341135899;1,2512588885158848;0,12207403790398877
11:51:02.463;0;Mov;1;9840;8,81;0;0;0;0,25362103307061984;-0,2631916257209998;-0,06220893046095347;-0,5493331705679495;0,3051850947599719;0,7324442274239327
11:51:02.500;0;Wrist;1;56195;10,33;0;0;0;0,05503097852236053;-0,2440504255186239;0,06579790643024995;-1,3428144169438765;-2,288888210699789;-0,36622211371196634
11:51:02.500;0;Wrist;1;56196;10,33;0;0;0;0,1411664204124958;-0,22610554194673757;0,010766930701942408;-0,6103701895199438;-2,4719992675557725;0
11:51:02.500;0;Wrist;1;56197;10,33;0;0;0;-0,07776116214484084;-0,20457167868015075;0,10288399765532014;0;-2,075258644367809;-0,12207403790398877
11:51:02.500;0;Wrist;1;56198;10,33;0;0;0;-0,15791497245227668;-0,2596026609279153;0,1292031646979049;0,27466658528397475;-3,4180730613116856;0,18311105685598317
11:51:02.501;0;Wrist;1;56199;10,33;0;0;0;0,0598162785729545;-0,1770561875562685;-0,01794488357188635;0,3357036042359691;-5,493331705679495;1,098666341135899
11:51:02.502;0;Wrist;1;56200;10,04;0;0;0;0,21773125102523117;0,1064729773500206;-0,18064516725096896;0;-5,493331705679495;1,1597033600878932
11:51:02.502;0;Wrist;1;56201;10,04;0;0;0;0,29549242807168796;0,1794488357188635;-0,1818414838814585;-0,8850367748039186;-3,845332193975646;-0,6714072084719382
11:51:02.502;0;Wrist;1;56202;10,04;0;0;0;0,2524247015385144;0,12441786092190694;-0,04306772280776963;-1,4343699453718681;-1,586962492751854;-2,8992584002197335
11:51:02.502;0;Wrist;1;56203;10,04;0;0;0;0,2871181371501816;0,06220893046095347;-0,01794488357188635;-1,403851435895871;0,4272591326639607;-4,852443006683553
11:51:02.503;0;Wrist;1;56204;10,04;0;0;0;0,12082888867801446;0,0598162785729545;0,05024567474636257;-1,3733329264198737;1,7090365306558428;-6,317331461531419
11:51:02.526;0;Mov;1;9841;8,92;0;0;0;0,2464430736812189;-0,14954069643238624;-0,05503097852236053;0,18311105685598317;0,9765923032319102;1,5564439832758568
11:51:02.526;0;Mov;1;9842;8,92;0;0;0;0,19500107112815485;0,009570604757942918;0,007177953801294938;0,5798516800439466;2,166814172795801;1,8311105685598315
11:51:02.526;0;Mov;1;9843;8,92;0;0;0;0,05742363041035951;0,028711815205179753;-0,010766930701942408;0,9765923032319102;2,5940733054597613;1,3122959074678793
11:51:02.526;0;Mov;1;9844;8,92;0;0;0;-0,12202521275931195;-0,0717795342875454;0,08493911408343378;1,3733329264198737;2,9908139286477247;1,0376293221839046
11:51:02.526;0;Mov;1;9845;8,92;0;0;0;-0,1339884610230949;-0,17825251908837397;0,0837427900021363;1,9837031159398175;1,922666096987823;0,36622211371196634
11:51:02.531;0;Wrist;1;56205;9,92;0;0;0;-0,15552232428968168;-0,11484726082071901;0,13518479255520036;-1,586962492751854;1,2512588885158848;-7,38547929319132
11:51:02.531;0;Wrist;1;56206;9,92;0;0;0;-0,05144199882766007;-0,3864131774632252;0,0933133975541322;-2,1362956633198036;-1,3428144169438765;-7,324442274239326
11:51:02.532;0;Wrist;1;56207;9,92;0;0;0;-0,009570604757942918;-0,297885061332667;0,06699423051154745;-3,2349620044557024;-2,5940733054597613;-5,584887234107486
11:51:02.532;0;Wrist;1;56208;9,92;0;0;0;-0,06101260637965598;-0,26199529418889433;0,11245460520731605;-3,662221137119663;-3,6317026276436657;-4,638813440351573
11:51:02.532;0;Wrist;1;56209;9,92;0;0;0;0,16868191153637807;-0,3696645956202124;0,0705832102062479;-3,814813684499649;-4,974517044587542;-3,936887722403638
11:51:02.586;0;Mov;1;9846;9,01;0;0;0;0,01674855762788686;-0,15193334459498123;0,007177953801294938;2,533036286507767;0,12207403790398877;0,3357036042359691
11:51:02.586;0;Mov;1;9847;9,01;0;0;0;0,15671865582178715;-0,027515489261180266;0,0239265114291818;2,2583697012237924;-1,4954069643238623;0,7629627368999298
11:51:02.586;0;Mov;1;9848;9,01;0;0;0;0,14595171673768578;0,14714804826979125;0,031104465230476736;1,2512588885158848;-1,6785180211798456;0,24414807580797754
11:51:02.586;0;Mov;1;9849;9,01;0;0;0;0,1435590685750908;0,13039949623001038;-0,028711815205179753;1,0071108127079074;-1,2207403790398876;0,18311105685598317
11:51:02.588;0;Mov;1;9850;9,01;0;0;0;0,12561418500320445;0,17346720786156805;0,0705832102062479;0,27466658528397475;-0,15259254737998595;0,18311105685598317
11:51:02.591;0;Wrist;1;56210;9,97;0;0;0;0,2895108002143925;-0,25362103307061984;0,01674855762788686;-4,058961760307627;-4,303109836115604;-2,807702871791742
11:51:02.591;0;Wrist;1;56211;9,97;0;0;0;0,2560136663315989;-0,20337534714804528;0,025122837373181287;-2,7771843623157446;-2,3499252296517836;-2,6551103244117558
11:51:02.591;0;Wrist;1;56212;9,97;0;0;0;0,09929502541142765;-0,290707131746498;0,12082888867801446;-1,7700735496078372;-0,793481246375927;-2,5940733054597613
11:51:02.591;0;Wrist;1;56213;9,97;0;0;0;0,08015381775824382;-0,3433454509300516;0,14475540010719626;-1,0376293221839046;-0,9155552842799157;-1,8921475875118259
11:51:02.591;0;Wrist;1;56214;9,97;0;0;0;0,12202521275931195;-0,3194189395008698;0,10049134949272515;-0,4882961516159551;-1,3428144169438765;-0,8545182653279214
11:51:02.614;0;Mov;1;9851;8,91;0;0;0;0,08254646592083881;0,19500107112815485;0,12322153684060945;-0,36622211371196634;-0,21362956633198035;0,4882961516159551
11:51:02.614;0;Mov;1;9852;8,91;0;0;0;0,08733176969683676;0,14236275194460127;0,04426404688906713;-1,403851435895871;-0,9460737937559129;0,3967406231879635
11:51:02.614;0;Mov;1;9853;8,91;0;0;0;0,12441786092190694;0,07895748622613834;0,08972441785943175;-2,2278511917477952;-0,6103701895199438;0,09155552842799158
11:51:02.614;0;Mov;1;9854;8,91;0;0;0;0,16270028367908262;0,03349711525577372;0,05024567474636257;-2,7771843623157446;-0,7019257179479355;0,061037018951994385
11:51:02.614;0;Mov;1;9855;8,91;0;0;0;0,06101260637965598;0,07536851398224585;0,18303781541356395;-3,4180730613116856;-0,09155552842799158;0,030518509475997192
11:51:02.653;0;Wrist;1;56215;10,04;0;0;0;0,11365092928861355;-0,20576799531064027;0,0837427900021363;0,061037018951994385;-0,7019257179479355;0,12207403790398877
11:51:02.653;0;Wrist;1;56216;10,04;0;0;0;0,0239265114291818;-0,15552232428968168;0,09211707347283471;0,3051850947599719;-0,12207403790398877;0,4882961516159551
11:51:02.653;0;Wrist;1;56217;10,04;0;0;0;-0,06220893046095347;-0,1961974026602603;0,12561418500320445;0,24414807580797754;-0,6714072084719382;0,7629627368999298
11:51:02.654;0;Wrist;1;56218;10,04;0;0;0;-0,0239265114291818;-0,1890194432708594;0,10288399765532014;0,3967406231879635;-1,8616290780358287;1,3122959074678793
11:51:02.654;0;Wrist;1;56219;10,04;0;0;0;-0,013159581658590389;-0,13638112408730582;0,09929502541142765;0,7019257179479355;-2,8992584002197335;1,6174810022278512
11:51:02.674;0;Mov;1;9856;8,99;0;0;0;0,1315958128604999;0,1184362330646115;0,06699423051154745;-4,119998779259621;-1,2207403790398876;-0,061037018951994385
11:51:02.674;0;Mov;1;9857;8,99;0;0;0;0,040675070919770656;0,05383465071565905;0,10288399765532014;-4,608294930875576;-0,9460737937559129;-0,36622211371196634
11:51:02.674;0;Mov;1;9858;8,99;0;0;0;0,04426404688906713;-0,019141209515885837;0,11604358490201651;-5,127109591967528;-1,3733329264198737;-0,5798516800439466
11:51:02.674;0;Mov;1;9859;8,99;0;0;0;0,09690236979802469;-0,0346934430624752;0,06460158234895245;-5,340739158299509;-1,922666096987823;-1,1291848506118962
11:51:02.674;0;Mov;1;9860;8,99;0;0;0;-0,0119632557145909;-0,10527665326872311;0,0693868861249504;-5,279702139347514;-1,7700735496078372;-1,0681478316599018
11:51:02.681;0;Wrist;1;56220;9,93;0;0;0;-0,007177953801294938;-0,09809870133013016;0,06460158234895245;0,6103701895199438;-3,6317026276436657;1,9837031159398175
11:51:02.681;0;Wrist;1;56221;9,93;0;0;0;0,06101260637965598;-0,1411664204124958;0,08493911408343378;0,4272591326639607;-4,150517288735618;2,197332682271798
11:51:02.681;0;Wrist;1;56222;9,93;0;0;0;-0,10408032918742562;-0,1435590685750908;0,13039949623001038;0,4882961516159551;-4,4557023834955904;2,3194067201757864
11:51:02.682;0;Wrist;1;56223;9,93;0;0;0;-0,18303781541356395;-0,24046144582392345;0,15552232428968168;0,27466658528397475;-6,8666646320993685;2,5940733054597613
11:51:02.682;0;Wrist;1;56224;9,93;0;0;0;-0,0945097216354297;-0,23806879766132846;0,08852809377813425;-0,061037018951994385;-9,857478560747094;3,448591570787683
11:51:02.733;0;Mov;1;9861;9,07;0;0;0;-0,06579790643024995;-0,12202521275931195;0,05024567474636257;-4,852443006683553;-2,7466658528397474;-1,2207403790398876
11:51:02.734;0;Mov;1;9862;9,07;0;0;0;0,07895748622613834;-0,10527665326872311;0,028711815205179753;-4,303109836115604;-3,936887722403638;-1,2207403790398876
11:51:02.734;0;Mov;1;9863;9,07;0;0;0;0,09929502541142765;-0,07417218990094836;-0,028711815205179753;-3,5706656086916717;-4,119998779259621;-1,1902218695638904
11:51:02.734;0;Mov;1;9864;9,07;0;0;0;0,13638112408730582;-0,01794488357188635;0,0717795342875454;-3,1434064760277107;-3,295999023407697;-1,3733329264198737
11:51:02.735;0;Mov;1;9865;9,07;0;0;0;0,0023926511894857296;-0,0478530228583636;0,06699423051154745;-3,173924985503708;-3,326517532883694;-1,2512588885158848
11:51:02.753;0;Wrist;1;56225;10,04;0;0;0;0,01794488357188635;-0,21773125102523117;0,0023926511894857296;-0,3357036042359691;-11,963255714590899;4,119998779259621
11:51:02.753;0;Wrist;1;56226;10,04;0;0;0;0,08135014183954131;-0,29549242807168796;0,10886562551261558;-0,7629627368999298;-13,000885036774804;4,852443006683553
11:51:02.753;0;Wrist;1;56227;10,04;0;0;0;-0,07656483806354335;-0,2560136663315989;0,16987822816686757;-0,36622211371196634;-13,36710715048677;5,676442762535478
11:51:02.753;0;Wrist;1;56228;10,04;0;0;0;-0,1985900508228553;-0,24285409398651844;0,18064516725096896;-0,12207403790398877;-15,381328775902585;6,653035065767388
11:51:02.753;0;Wrist;1;56229;10,04;0;0;0;0,00837427881394343;-0,3182226079687643;0,14236275194460127;-0,5188146610919523;-18,89095736564226;7,599108859523301
11:51:02.765;0;Mov;1;9866;9;0;0;0;-0,13279214439260537;-0,03349711525577372;0,10886562551261558;-3,326517532883694;-4,547257911923582;-0,9765923032319102
11:51:02.765;0;Mov;1;9867;9;0;0;0;-0,03349711525577372;-0,013159581658590389;0,0705832102062479;-2,9297769096957307;-6,8666646320993685;-1,0071108127079074
11:51:02.765;0;Mov;1;9868;9;0;0;0;0,021533861403884816;-0,0119632557145909;-0,003588976900647469;-2,6245918149357585;-7,965330973235267;-1,403851435895871
11:51:02.766;0;Mov;1;9869;9;0;0;0;0,10527665326872311;-0,03230079117447623;-0,07297585836884289;-2,1362956633198036;-8,178960539567248;-1,7700735496078372
11:51:02.766;0;Mov;1;9870;9;0;0;0;0,38760947919209876;0,05503097852236053;-0,21653493439474167;-1,6479995117038484;-8,02636799218726;-2,4414807580797753
11:51:02.801;0;Wrist;1;56230;10,02;0;0;0;0,03230079117447623;-0,2775475444998016;0,117239908983314;0;-19,77599414044618;8,14844203009125
11:51:02.801;0;Wrist;1;56231;10,02;0;0;0;0,14714804826979125;-0,16389660030957212;0,025122837373181287;0,5188146610919523;-20,386364329966124;8,392590105899227
11:51:02.801;0;Wrist;1;56232;10,02;0;0;0;0,1507370279644917;-0,14475540010719626;0,0239265114291818;1,1902218695638904;-19,287697988830224;8,301034577471237
11:51:02.801;0;Wrist;1;56233;10,02;0;0;0;-0,01674855762788686;-0,19978636745334483;0,1961974026602603;2,2583697012237924;-18,25006866664632;8,667256691183203
11:51:02.801;0;Wrist;1;56234;10,02;0;0;0;-0,07895748622613834;-0,1531296761270867;0,17825251908837397;2,8992584002197335;-19,318216498306224;8,972441785943175
11:51:02.824;0;Mov;1;9871;9,07;0;0;0;0,25720999786370435;-0,00598162785729545;-0,16150395214697713;-1,281777397991882;-4,913480025635548;-2,807702871791742
11:51:02.824;0;Mov;1;9872;9,07;0;0;0;0,03708609495047418;0,015552232615238368;0,13518479255520036;-1,3733329264198737;-2,685628833887753;-3,1128879665517135
11:51:02.824;0;Mov;1;9873;9,07;0;0;0;-0,25720999786370435;0,04306772280776963;0,3062593522541734;-2,3194067201757864;-3,1434064760277107;-2,380443739127781
11:51:02.824;0;Mov;1;9874;9,07;0;0;0;-0,07895748622613834;0,06699423051154745;0,07776116214484084;-2,6551103244117558;-7,873775444807276;-2,6245918149357585
11:51:02.825;0;Mov;1;9875;9,07;0;0;0;0,1543260076591922;-0,025122837373181287;-0,04904935066506508;-2,410962248603778;-9,308145390179144;-2,9908139286477247
11:51:02.832;0;Wrist;1;56235;9,93;0;0;0;0,04187139500106815;-0,15791497245227668;0,08852809377813425;3,204443494979705;-20,75258644367809;9,03347880489517
11:51:02.832;0;Wrist;1;56236;9,93;0;0;0;0,026319163317180778;-0,12322153684060945;0,09211707347283471;3,6011841181676685;-20,75258644367809;8,850367748039186
11:51:02.832;0;Wrist;1;56237;9,93;0;0;0;0,06579790643024995;0,010766930701942408;0,04306772280776963;4,0284432508316295;-21,17984557634205;8,239997558519242
11:51:02.832;0;Wrist;1;56238;9,93;0;0;0;0,11245460520731605;-0,01794488357188635;0,021533861403884816;3,814813684499649;-20,599993896298106;7,507553331095309
11:51:02.832;0;Wrist;1;56239;9,93;0;0;0;0,11604358490201651;-0,15552232428968168;-0,009570604757942918;4,364146855067599;-19,501327555162206;7,17184972685934
11:51:02.883;0;Mov;1;9876;9,13;0;0;0;0,0693868861249504;-0,04546037097036462;0,0466566987770661;-2,1362956633198036;-8,423108615375225;-2,9602954191717274
11:51:02.883;0;Mov;1;9877;9,13;0;0;0;-0,015552232615238368;-0,056227302603658026;0,07297585836884289;-2,2278511917477952;-9,491256447035127;-2,685628833887753
11:51:02.883;0;Mov;1;9878;9,13;0;0;0;0,1076693014313181;0,03349711525577372;-0,06220893046095347;-1,586962492751854;-12,359996337778863;-3,0823694570757163
11:51:02.883;0;Mov;1;9879;9,13;0;0;0;0,30386668918996246;0,013159581658590389;-0,17466353939367352;-0,6714072084719382;-13,611255226294748;-3,1128879665517135
11:51:02.883;0;Mov;1;9880;9,13;0;0;0;0,119632557145909;-0,1064729773500206;0,07536851398224585;-0,6714072084719382;-11,474959562974945;-2,7466658528397474
11:51:02.893;0;Wrist;1;56240;9,99;0;0;0;0,0837427900021363;0,02273018548518231;-0,0945097216354297;4,1810357982116155;-17,91436506241035;7,263405255287331
11:51:02.893;0;Wrist;1;56241;9,99;0;0;0;-0,0119632557145909;-0,020337535459885328;0,11125828112601856;4,0284432508316295;-17,120883816034425;7,17184972685934
11:51:02.893;0;Wrist;1;56242;9,99;0;0;0;-0,05144199882766007;0,119632557145909;-0,01794488357188635;3,295999023407697;-17,853328043458358;6,988738670003357
11:51:02.893;0;Wrist;1;56243;9,99;0;0;0;0,14236275194460127;0,00837427881394343;-0,07417218990094836;2,380443739127781;-18,55525376140629;6,378368480483413
11:51:02.894;0;Wrist;1;56244;9,99;0;0;0;0,37205725868442335;-0,07656483806354335;-0,26558428878521073;2,2278511917477952;-17,09036530655843;5,676442762535478
11:51:02.914;0;Mov;1;9881;9,06;0;0;0;-0,13279214439260537;0,0466566987770661;0,2009826989854503;-1,586962492751854;-11,169774468214973;-2,4414807580797753
11:51:02.914;0;Mov;1;9882;9,06;0;0;0;0,11484726082071901;0,1387737722499008;-0,119632557145909;-1,6785180211798456;-14,313180944242683;-3,204443494979705
11:51:02.914;0;Mov;1;9883;9,06;0;0;0;0,3218115727618488;-0,025122837373181287;-0,2548173646027253;-1,281777397991882;-12,970366527298808;-3,326517532883694
11:51:02.914;0;Mov;1;9884;9,06;0;0;0;0,29668875960379343;-0,08972441785943175;-0,02990813928647725;-1,2207403790398876;-9,094515823847164;-3,2654805139316996
11:51:02.914;0;Mov;1;9885;9,06;0;0;0;0,0693868861249504;0,04187139500106815;0,06579790643024995;-1,2512588885158848;-8,056886501663259;-3,357036042359691
11:51:02.921;0;Wrist;1;56245;9,89;0;0,5515061242065188;0;0,5515061242065188;-0,1339884610230949;-0,3146336431756798;2,044740134891812;-12,237922299874874;4,821924497207556
11:51:02.922;0;Wrist;1;56246;9,89;0;0;0;0,4976714436876278;-0,0705832102062479;-0,29190343347537157;2,1057771538438064;-4,943998535111545;4,0284432508316295
11:51:02.922;0;Wrist;1;56247;9,89;0;0;0;0,23806879766132846;0,1064729773500206;-0,11484726082071901;1,1291848506118962;0,45777764213995786;3,173924985503708
11:51:02.923;0;Wrist;1;56248;9,89;0;0;0;0,117239908983314;-0,1184362330646115;-0,0478530228583636;0,24414807580797754;2,197332682271798;1,922666096987823
11:51:02.923;0;Wrist;1;56249;9,89;0;0;0;0,1411664204124958;-0,18423414694566942;-0,019141209515885837;0,21362956633198035;2,838221381267739;1,1597033600878932
11:51:02.973;0;Mov;1;9886;9,13;0;0;0;-0,05503097852236053;0,04546037097036462;-0,0023926511894857296;-0,5188146610919523;-9,369182409131138;-3,4180730613116856
11:51:02.975;0;Mov;1;9887;9,13;0;0;0;0,21414228623214668;0,07776116214484084;-0,09929502541142765;0,27466658528397475;-10,681478316599017;-3,5401470992156745
11:51:02.975;0;Mov;1;9888;9,13;0;0;0;0,28831446868228705;-0,04426404688906713;-0,14236275194460127;0,7324442274239327;-9,918515579699088;-3,47911008026368
11:51:02.975;0;Mov;1;9889;9,13;0;0;0;-0,13279214439260537;-0,11245460520731605;0,35770133990562153;0,18311105685598317;-6,378368480483413;-2,5025177770317697
11:51:02.975;0;Mov;1;9890;9,13;0;0;0;-0,18303781541356395;0,236872466129223;0,33975645633373514;-0,9155552842799157;-10,895107882930997;-2,288888210699789
11:51:03.035;0;Mov;1;9891;9,2;0;0;0;0,014355907602589877;0,2464430736812189;0,06579790643024995;-2,075258644367809;-15,86962492751854;-1,922666096987823
11:51:03.035;0;Mov;1;9892;9,2;0;0;0;0,12681051653530992;0,08972441785943175;0,026319163317180778;-2,0142216254158147;-16,998809778130436;-1,4343699453718681
11:51:03.035;0;Mov;1;9893;9,2;0;0;0;0,2440504255186239;0,17346720786156805;-0,07656483806354335;-2,288888210699789;-17,548142948698384;-1,2512588885158848
11:51:03.035;0;Mov;1;9894;9,2;0;0;0;0,3182226079687643;0,0717795342875454;-0,3050630207220679;-2,075258644367809;-16,449476607562488;-1,281777397991882
11:51:03.035;0;Mov;1;9895;9,2;0;0;0;0,3421491193979461;0,014355907602589877;-0,2859218056180761;-1,1291848506118962;-12,421033356730858;-1,403851435895871
11:51:03.041;0;Wrist;1;56250;10,21;0;0;0;0,09092074194072924;-0,08015381775824382;-0,01674855762788686;-0,12207403790398877;2,8687398907437363;0,793481246375927
11:51:03.041;0;Wrist;1;56251;10,21;0;0;0;0,09092074194072924;-0,23806879766132846;0,297885061332667;0,12207403790398877;2,4719992675557725;0,36622211371196634
11:51:03.042;0;Wrist;1;56252;10,21;0;0;0;-0,29309976500747703;-0,2596026609279153;0,31224098011146884;1,7090365306558428;1,403851435895871;0,7324442274239327
11:51:03.042;0;Wrist;1;56253;10,21;0;0;0;0,15791497245227668;-0,236872466129223;-0,13279214439260537;2,1057771538438064;-1,6785180211798456;1,9837031159398175
11:51:03.042;0;Wrist;1;56254;10,21;0;0,5850032282860805;0;0,5850032282860805;-0,2751548814355907;-0,34932707878734703;2,3499252296517836;-0,640888698995941;2,0142216254158147
11:51:03.044;0;Wrist;1;56255;9,99;0;0;0;0,42828457246429336;-0,29668875960379343;-0,0023926511894857296;3,021332438123722;3,845332193975646;0,9765923032319102
11:51:03.044;0;Wrist;1;56256;9,99;0;0;0;0,290707131746498;-0,39119847378841516;-0,05742363041035951;3,662221137119663;7,141331217383343;0,5798516800439466
11:51:03.044;0;Wrist;1;56257;9,99;0;0;0;-0,19380473959604938;-0,29668875960379343;0,3098483170472579;3,936887722403638;9,552293465987121;0,5188146610919523
11:51:03.045;0;Wrist;1;56258;9,99;0;0;0;-0,18782311173875393;-0,3469344157231361;0,16389660030957212;4,089480269783624;6,653035065767388;1,3428144169438765
11:51:03.045;0;Wrist;1;56259;9,99;0;0;0;-0,07656483806354335;-0,24285409398651844;0,2440504255186239;5,127109591967528;3,7842951750236518;2,075258644367809
11:51:03.064;0;Mov;1;9896;9,13;0;0;0;0,43306986878948334;0,06819056204365291;-0,417517618478576;0,030518509475997192;-10,193182164983062;-2,3499252296517836
11:51:03.064;0;Mov;1;9897;9,13;0;0;0;0,30386668918996246;-0,08733176969683676;-0,2548173646027253;1,586962492751854;-6,378368480483413;-2,9908139286477247
11:51:03.064;0;Mov;1;9898;9,13;0;0;0;0,18303781541356395;-0,11006195704472106;-0,058619954491657;2,71614734336375;-3,9979247413556322;-3,5401470992156745
11:51:03.064;0;Mov;1;9899;9,13;0;0;0;-0,0011963255947428648;0,00837427881394343;0,17585985602416304;2,685628833887753;-3,448591570787683;-3,9979247413556322
11:51:03.064;0;Mov;1;9900;9,13;0;-0,5479170998069705;0,9594531202314829;-0,5479170998069705;0,010766930701942408;0,9594531202314829;-0,09155552842799158;-1,8005920590838342;-2,8687398907437363
11:51:03.071;0;Wrist;1;56260;9,89;0;0;0;0,10168767357402264;-0,2990813928647725;0,11125828112601856;6,378368480483413;2,380443739127781;2,380443739127781
11:51:03.071;0;Wrist;1;56261;9,89;0;0;0;0,24524674214911343;-0,2667806203173162;-0,15791497245227668;6,775109103671377;2,71614734336375;2,533036286507767
11:51:03.071;0;Wrist;1;56262;9,89;0;0;0;0,0957060457167272;-0,08015381775824382;-0,07297585836884289;5,798516800439467;4,0284432508316295;2,685628833887753
11:51:03.071;0;Wrist;1;56263;9,89;0;0;0;-0,29309976500747703;-0,11245460520731605;0,4306772057252724;5,188146610919523;3,3875545518356884;2,6551103244117558
11:51:03.072;0;Wrist;1;56264;9,89;0;0;0;-0,22849819010933256;-0,2488357218438139;0,0945097216354297;5,645924253059481;-0,9460737937559129;2,807702871791742
11:51:03.096;0;Mov;1;9901;9,07;0;0;0;-0,4258919094000824;0,22849819010933256;0,4498184208292642;-3,7232581560716573;-10,498367259743034;-2,2583697012237924
11:51:03.096;0;Mov;1;9902;9,07;0;0;0;-0,1961974026602603;0,23806879766132846;0,3218115727618488;-5,584887234107486;-15,961180455946531;-2,380443739127781
11:51:03.096;0;Mov;1;9903;9,07;0;0;0;0,14595171673768578;0,0957060457167272;-0,10168767357402264;-6,714072084719382;-20,87466048158208;-1,4648884548478653
11:51:03.096;0;Mov;1;9904;9,07;0;0;-0,5574877520638142;0,4569963802186651;-0,08972441785943175;-0,5574877520638142;-6,805627613147374;-19,531846064638202;-1,0376293221839046
11:51:03.096;0;Mov;1;9905;9,07;0;0,635248914208655;-0,7656483657338176;0,635248914208655;-0,3708609271523179;-0,7656483657338176;-5,890072328867458;-11,261329996642964;-1,8311105685598315
11:51:03.131;0;Wrist;1;56265;9,94;0;0;0;0,0598162785729545;-0,24524674214911343;-0,11245460520731605;5,249183629871517;-4,333628345591602;3,3875545518356884
11:51:03.131;0;Wrist;1;56266;9,94;0;0;0;0,3660756308271279;-0,1435590685750908;-0,27276224817461164;4,7303689687795645;-4,699850459303567;4,0284432508316295
11:51:03.131;0;Wrist;1;56267;9,94;0;0,6962614945104831;0;0,6962614945104831;-0,07656483806354335;-0,3947874385814997;3,2654805139316996;-1,2207403790398876;4,0284432508316295
11:51:03.132;0;Wrist;1;56268;9,94;0;0;0;0,48929718256935334;0,02990813928647725;-0,33018586368335523;2,71614734336375;5,523850215155492;2,838221381267739
11:51:03.132;0;Wrist;1;56269;9,94;0;0;0;0,09690236979802469;0,21773125102523117;-0,14714804826979125;2,166814172795801;9,949034089175084;1,6479995117038484
11:51:03.154;0;Mov;1;9906;9,12;0;0,6232856584940641;-0,7859859123699149;0,6232856584940641;-0,3349711600085452;-0,7859859123699149;-3,662221137119663;-1,8311105685598315;-4,425183874019593
11:51:03.154;0;Mov;1;9907;9,12;0;0;0;0,04904935066506508;-0,11245460520731605;0,04904935066506508;-0,030518509475997192;6,74459059419538;-6,134220404675435
11:51:03.154;0;Mov;1;9908;9,12;0;0;0;-0,007177953801294938;-0,20217903051755579;0,04426404688906713;2,380443739127781;4,516739402447585;-5,859553819391461
11:51:03.154;0;Mov;1;9909;9,12;0;0;-0,5215979849200415;0,3816278513348033;-0,17825251908837397;-0,5215979849200415;4,943998535111545;0,7324442274239327;-5,859553819391461
11:51:03.154;0;Mov;1;9910;9,12;0;0;0;0,3026703874610889;-0,058619954491657;-0,1794488357188635;6,530961027863399;7,965330973235267;-6,469924008911405
11:51:03.196;0;Wrist;1;56270;10;0;0;0;0,17346720786156805;-0,11006195704472106;-0,009570604757942918;1,6174810022278512;10,620441297647023;0,9765923032319102
11:51:03.196;0;Wrist;1;56271;10;0;0;0;0,1531296761270867;-0,013159581658590389;0,00837427881394343;1,0376293221839046;12,512588885158848;0,7324442274239327
11:51:03.196;0;Wrist;1;56272;10;0;0;0;-0,09809870133013016;0,02273018548518231;0,1818414838814585;0,8850367748039186;13,428144169438765;0,5188146610919523
11:51:03.196;0;Wrist;1;56273;10;0;0;0;0,07895748622613834;-0,08015381775824382;0,05144199882766007;1,1291848506118962;12,421033356730858;0,061037018951994385
11:51:03.196;0;Wrist;1;56274;10;0;0;0;-0,00837427881394343;-0,07895748622613834;0,040675070919770656;0,5188146610919523;13,245033112582782;-0,4272591326639607
11:51:03.214;0;Mov;1;9911;9,18;0;0;0;0,09092074194072924;-0,11604358490201651;-0,04546037097036462;7,538071840571306;12,085329752494888;-5,981627857295449
11:51:03.214;0;Mov;1;9912;9,18;0;0;0;-0,1315958128604999;-0,01794488357188635;0,3708609271523179;7,110812707907346;12,298959318826869;-5,706961272011475
11:51:03.214;0;Mov;1;9913;9,18;0;0;0;-0,1770561875562685;-0,11245460520731605;0,2823328408249916;6,225775933103427;7,446516312143315;-5,096591082491531
11:51:03.214;0;Mov;1;9914;9,18;0;0;0;0,11006195704472106;-0,040675070919770656;-0,014355907602589877;5,706961272011475;4,913480025635548;-4,943998535111545
11:51:03.214;0;Mov;1;9915;9,18;0;0;0;0,2440504255186239;-0,16150395214697713;-0,14595171673768578;5,859553819391461;6,775109103671377;-4,8829615161595505
11:51:03.243;0;Mov;1;9916;9,11;0;0;0;0,2596026609279153;-0,22251656225203711;-0,14834437980189671;6,347849971007416;9,826960051271096;-4,4557023834955904
11:51:03.243;0;Mov;1;9917;9,11;0;0;0;0,2512283700064089;-0,05383465071565905;-0,119632557145909;6,836146122623371;12,756736960966826;-3,7537766655476545
11:51:03.243;0;Mov;1;9918;9,11;0;0;0;0,41871395001068146;0,20816065837485123;-0,10886562551261558;6,317331461531419;14,03851435895871;-2,7771843623157446
11:51:03.243;0;Mov;1;9919;9,11;0;0;0;0,12322153684060945;0,21892758255733666;0,04306772280776963;5,371257667775506;14,67940305795465;-1,6785180211798456
11:51:03.243;0;Mov;1;9920;9,11;0;0;0;-0,21653493439474167;0,04426404688906713;0,2488357218438139;4,608294930875576;14,191106906338694;-1,7090365306558428
11:51:03.252;0;Wrist;1;56275;10,02;0;0;0;-0,026319163317180778;-0,13997008888039034;0,058619954491657;-0,6714072084719382;12,482070375682852;-0,5798516800439466
11:51:03.252;0;Wrist;1;56276;10,02;0;0;0;0,15552232428968168;-0,11604358490201651;-0,08015381775824382;-2,0142216254158147;11,871700186162908;-0,793481246375927
11:51:03.252;0;Wrist;1;56277;10,02;0;0;0;0,1866267951082644;0,025122837373181287;-0,09809870133013016;-3,357036042359691;12,451551866206854;-1,1291848506118962
11:51:03.252;0;Wrist;1;56278;10,02;0;0;0;-0,0011963255947428648;-0,026319163317180778;0,1531296761270867;-4,608294930875576;13,061922055726798;-1,7090365306558428
11:51:03.252;0;Wrist;1;56279;10,02;0;0;0;0,08852809377813425;-0,18303781541356395;0,10408032918742562;-4,486220892971588;12,237922299874874;-1,8005920590838342
11:51:03.341;0;Wrist;1;56280;10,18;0;0;0;0,12561418500320445;-0,052638326634361556;-0,06101260637965598;-4,303109836115604;12,482070375682852;-1,7090365306558428
11:51:03.341;0;Wrist;1;56281;10,18;0;0;0;-0,04426404688906713;-0,11125828112601856;0,1076693014313181;-4,272591326639607;12,604144413586841;-1,8921475875118259
11:51:03.341;0;Wrist;1;56282;10,18;0;0;0;-0,2775475444998016;-0,06819056204365291;0,27276224817461164;-3,5401470992156745;11,20029297769097;-1,8921475875118259
11:51:03.341;0;Wrist;1;56283;10,18;0;0;0;-0,38760947919209876;-0,13039949623001038;0,3349711600085452;-2,3499252296517836;7,446516312143315;-1,4954069643238623
11:51:03.341;0;Wrist;1;56284;10,18;0;0;0;-0,04546037097036462;-0,20457167868015075;0,22251656225203711;-1,3122959074678793;3,7537766655476545;-0,5188146610919523
11:51:03.342;0;Wrist;1;56285;9,96;0;0;0;-0,00598162785729545;-0,14236275194460127;0,15911130398438214;-0,5493331705679495;2,7466658528397474;0,15259254737998595
11:51:03.343;0;Wrist;1;56286;9,96;0;0;0;0,2871181371501816;-0,19260842296555986;-0,0837427900021363;0,061037018951994385;2,3194067201757864;0,4272591326639607
11:51:03.343;0;Wrist;1;56287;9,96;0;0;0;0,3421491193979461;-0,1339884610230949;-0,12681051653530992;0,21362956633198035;3,936887722403638;0,3051850947599719
11:51:03.343;0;Wrist;1;56288;9,96;0;0;0;-0,1507370279644917;0,03349711525577372;-0,0011963255947428648;-0,030518509475997192;5,7374797814874725;0
11:51:03.343;0;Wrist;1;56289;9,96;0;0;0;-0,3385601546048616;0,013159581658590389;0,20337534714804528;-0,21362956633198035;3,6011841181676685;-0,4272591326639607
11:51:03.370;0;Wrist;1;56290;9,59;0;0;0;0,0945097216354297;0,20457167868015075;-0,06819056204365291;-0,7629627368999298;0,4272591326639607;-0,6714072084719382
11:51:03.370;0;Wrist;1;56291;9,59;0;0;0;0,2739585499034852;0,36846829389133884;-0,23208716980403302;-2,197332682271798;0,8239997558519242;-2,0142216254158147
11:51:03.370;0;Wrist;1;56292;9,59;0;0;0;0,1076693014313181;0,1411664204124958;-0,06460158234895245;-3,9063692129276406;2,7466658528397474;-3,9063692129276406
11:51:03.370;0;Wrist;1;56293;9,59;0;0;0;0,08613544561553926;0,12561418500320445;-0,05503097852236053;-4,394665364543596;3,295999023407697;-5,21866512039552
11:51:03.370;0;Wrist;1;56294;9,59;0;0;0;0,0717795342875454;-0,0717795342875454;-0,04426404688906713;-4,119998779259621;3,051850947599719;-6,469924008911405
11:51:03.405;0;Mov;1;9921;9,75;0;0;0;-0,14236275194460127;-0,020337535459885328;0,16987822816686757;4,364146855067599;11,474959562974945;-2,044740134891812
11:51:03.405;0;Mov;1;9922;9,75;0;0;0;-0,21055330653744622;-0,04546037097036462;0,2464430736812189;3,5401470992156745;9,765923032319101;-2,2583697012237924
11:51:03.405;0;Mov;1;9923;9,75;0;0;0;0,0598162785729545;0,07656483806354335;0,09690236979802469;2,5025177770317697;6,073183385723441;-2,197332682271798
11:51:03.405;0;Mov;1;9924;9,75;0;0;0;0,2249092104146321;0,14236275194460127;-0,12441786092190694;2,075258644367809;4,486220892971588;-2,3194067201757864
11:51:03.405;0;Mov;1;9925;9,75;0;0;0;0,014355907602589877;-0,08972441785943175;0,05144199882766007;2,563554795983764;6,40888698995941;-2,3194067201757864
11:51:03.406;0;Mov;1;9926;9,76;0;0;0;0,06579790643024995;-0,22012391408944212;-0,015552232615238368;3,3875545518356884;5,096591082491531;-1,8616290780358287
11:51:03.406;0;Mov;1;9927;9,76;0;0;0;0,14475540010719626;-0,23806879766132846;-0,10049134949272515;3,936887722403638;4,1810357982116155;-0,9460737937559129
11:51:03.406;0;Mov;1;9928;9,76;0;0;0;-0,0478530228583636;-0,3182226079687643;0,08015381775824382;4,150517288735618;4,66933194982757;0,21362956633198035
11:51:03.406;0;Mov;1;9929;9,76;0;0;0;0,07417218990094836;-0,4223029446069979;0,02273018548518231;4,4557023834955904;2,6245918149357585;1,4648884548478653
11:51:03.406;0;Mov;1;9930;9,76;-0,5000640769486069;0;0;0,15193334459498123;-0,5000640769486069;-0,014355907602589877;4,364146855067599;2,9297769096957307;3,295999023407697
11:51:03.407;0;Mov;1;9931;9,76;0;0;0;0,1339884610230949;-0,4498184208292642;-0,18423414694566942;3,7842951750236518;3,4180730613116856;5,279702139347514
11:51:03.407;0;Mov;1;9932;9,76;0;0;0;0,14475540010719626;-0,14714804826979125;-0,16628926337378308;3,051850947599719;3,7232581560716573;6,775109103671377
11:51:03.407;0;Mov;1;9933;9,76;0;0;0;0,2464430736812189;0,31582994490455335;-0,14834437980189671;2,410962248603778;4,24207281716361;6,714072084719382
11:51:03.407;0;Mov;1;9934;9,76;0,6639606921597949;0;0;0,32300790429395426;0,6639606921597949;-0,15911130398438214;2,197332682271798;6,40888698995941;5,4322946867275
11:51:03.407;0;Mov;1;9935;9,76;0,6149113675725577;0;0;0,29190343347537157;0,6149113675725577;-0,17585985602416304;1,9531846064638203;8,667256691183203;4,303109836115604
11:51:03.431;0;Wrist;1;56295;9,73;-0,5048494030770287;0;0;0,18423414694566942;-0,5048494030770287;0,04904935066506508;-3,0823694570757163;2,6551103244117558;-6,8666646320993685
11:51:03.432;0;Wrist;1;56296;9,73;-0,717795342875454;0;0;-0,003588976900647469;-0,717795342875454;0,1914120914334544;-0,9155552842799157;3,051850947599719;-6,347849971007416
11:51:03.432;0;Wrist;1;56297;9,73;-0,9092074343089084;0;0;-0,417517618478576;-0,9092074343089084;0,4881008510372478;2,1057771538438064;0,9460737937559129;-4,66933194982757
11:51:03.432;0;Wrist;1;56298;9,73;-0,900833143387402;0;0;-0,2715659166425062;-0,900833143387402;0,43187353725737787;5,3102206488235115;-3,9979247413556322;-1,5259254737998595
11:51:03.432;0;Wrist;1;56299;9,73;-0,8075197607348857;0;0;-0,027515489261180266;-0,8075197607348857;0,25720999786370435;7,751701406903287;-6,8666646320993685;2,044740134891812
11:51:03.453;0;Mov;1;9936;9,93;0,5586840537926878;0;0;-0,0023926511894857296;0,5586840537926878;-0,00598162785729545;1,2207403790398876;10,620441297647023;3,5706656086916717
11:51:03.453;0;Mov;1;9937;9,93;0,7895748771629993;0;0;-0,12441786092190694;0,7895748771629993;0,22610554194673757;-0,4272591326639607;8,423108615375225;2,3194067201757864
11:51:03.453;0;Mov;1;9938;9,93;0,8852809228797266;0;0;-0,10168767357402264;0,8852809228797266;0,14595171673768578;-2,197332682271798;4,394665364543596;-0,18311105685598317
11:51:03.453;0;Mov;1;9939;9,93;0;0;0;-0,12561418500320445;0,4306772057252724;0,11365092928861355;-3,1128879665517135;3,7232581560716573;-3,5401470992156745
11:51:03.453;0;Mov;1;9940;9,93;0;0;0;-0,06220893046095347;0,2679769220461898;0,07776116214484084;-2,7771843623157446;3,021332438123722;-6,561479537339396
11:51:03.492;0;Wrist;1;56300;9,95;0;0;0;0,08972441785943175;-0,3780388865417188;-0,0011963255947428648;8,423108615375225;-7,263405255287331;5,798516800439467
11:51:03.492;0;Wrist;1;56301;9,95;0;0;0;0,25003203847430344;-0,0011963255947428648;-0,18064516725096896;6,805627613147374;-7,141331217383343;8,178960539567248
11:51:03.492;0;Wrist;1;56302;9,95;0;0,5921811578722496;0;0,5921811578722496;0,2787438760319071;-0,4246955778679769;3,448591570787683;-4,608294930875576;8,453627124851222
11:51:03.492;0;Wrist;1;56303;9,95;0;0,7800042845126194;-0,5670583447141941;0,7800042845126194;0,44503312450407423;-0,5670583447141941;-0,6103701895199438;0,8850367748039186;6,500442518387402
11:51:03.492;0;Wrist;1;56304;9,95;0,5706473095072787;0,6376415176664022;0;0,6376415176664022;0,5706473095072787;-0,41632131674970246;-3,7842951750236518;7,690664387951292;3,448591570787683
11:51:03.514;0;Mov;1;9941;9,83;0;0;0;0,08852809377813425;-0,12561418500320445;0,020337535459885328;-1,403851435895871;2,2278511917477952;-8,514664143803216
11:51:03.514;0;Mov;1;9942;9,83;0;0;0;-0,08015381775824382;-0,49049348429822687;0,2739585499034852;-0,793481246375927;3,1434064760277107;-8,545182653279214
11:51:03.514;0;Mov;1;9943;9,83;-0,6268746232871486;0;0;0,12681051653530992;-0,6268746232871486;0,08135014183954131;-0,4272591326639607;0,6103701895199438;-7,263405255287331
11:51:03.514;0;Mov;1;9944;9,83;-0,5682546464430677;0;0;0,4952788104266488;-0,5682546464430677;-0,2512283700064089;1,1902218695638904;0,061037018951994385;-5,1576281014435255
11:51:03.514;0;Mov;1;9945;9,83;-0,5120273326631978;0;0;0,4928861473624378;-0,5120273326631978;-0,26438795725310527;3,173924985503708;3,6317026276436657;-2,838221381267739
11:51:03.521;0;Wrist;1;56305;9,84;0;0;0;0,49886777521973324;0,4952788104266488;-0,239265114291818;-4,974517044587542;13,153477584154789;-0,36622211371196634
11:51:03.521;0;Wrist;1;56306;9,84;0,5060457048059023;0;0;0,19500107112815485;0,5060457048059023;-0,16987822816686757;-6,134220404675435;17,212439344462418;-4,303109836115604
11:51:03.521;0;Wrist;1;56307;9,84;0;0;0;-0,07895748622613834;0,30027772439687794;0,06699423051154745;-7,141331217383343;17,975402081362347;-7,9958494827112645
11:51:03.521;0;Wrist;1;56308;9,84;0;0;0;-0,13039949623001038;0,12681051653530992;0,22610554194673757;-7,477034821619312;16,418958098086488;-10,040589617603077
11:51:03.521;0;Wrist;1;56309;9,84;0;0;0;-0,1543260076591922;-0,0957060457167272;0,33736382307275614;-6,378368480483413;14,435254982146672;-11,261329996642964
11:51:03.574;0;Mov;1;9946;9,83;0;0;0;0,3828241828669088;-0,358897671437727;-0,18064516725096896;4,516739402447585;7,446516312143315;-0,3967406231879635
11:51:03.574;0;Mov;1;9947;9,83;0;0;0;0,013159581658590389;-0,2859218056180761;0,12681051653530992;5,035554063539537;10,43733024079104;1,7700735496078372
11:51:03.574;0;Mov;1;9948;9,83;0;0;0;-0,20576799531064027;-0,12082888867801446;0,2703695851104007;3,845332193975646;9,430219428083133;3,7537766655476545
11:51:03.575;0;Mov;1;9949;9,83;0;0;0;0,025122837373181287;0,08015381775824382;0,031104465230476736;2,7771843623157446;5,493331705679495;4,24207281716361
11:51:03.575;0;Mov;1;9950;9,83;0;0;0;0,00837427881394343;0,06101260637965598;0,0837427900021363;1,922666096987823;5,005035554063539;4,0284432508316295
11:51:03.603;0;Mov;1;9951;9,93;0;0;0;-0,34573808419103064;0,08733176969683676;0,43306986878948334;0,36622211371196634;4,364146855067599;3,7537766655476545
11:51:03.603;0;Mov;1;9952;9,93;0;0;0;-0,36009400296983246;0,15791497245227668;0,35650503817674795;-1,3428144169438765;-0,9460737937559129;2,838221381267739
11:51:03.603;0;Mov;1;9953;9,93;0;0;0;-0,04546037097036462;0,34573808419103064;0,0705832102062479;-2,8687398907437363;-5,279702139347514;1,3122959074678793
11:51:03.603;0;Mov;1;9954;9,93;0;0;0;0,23208716980403302;0,27276224817461164;-0,12322153684060945;-3,021332438123722;-5,7374797814874725;0,3357036042359691
11:51:03.603;0;Mov;1;9955;9,93;0;0;0;0,08254646592083881;0,23208716980403302;-0,0239265114291818;-3,326517532883694;-3,8758507034516434;-0,45777764213995786
11:51:03.611;0;Wrist;1;56310;9,36;0;0;0;-0,1184362330646115;-0,21414228623214668;0,2667806203173162;-4,760887478255562;11,963255714590899;-11,597033600878934
11:51:03.611;0;Wrist;1;56311;9,36;0;0;0;-0,1184362330646115;-0,3194189395008698;0,18543046357615894;-3,295999023407697;9,521774956511123;-11,352885525070956
11:51:03.611;0;Wrist;1;56312;9,36;0;0;0;-0,1435590685750908;-0,4952788104266488;0,26558428878521073;-1,6785180211798456;7,110812707907346;-10,071108127079073
11:51:03.611;0;Wrist;1;56313;9,36;-0,5861995300149541;0;0;-0,3385601546048616;-0,5861995300149541;0,38402051439901425;-0,15259254737998595;4,66933194982757;-7,873775444807276
11:51:03.611;0;Wrist;1;56314;9,36;-0,6878872035889767;0;0;-0,3098483170472579;-0,6878872035889767;0,30027772439687794;1,098666341135899;1,2512588885158848;-4,913480025635548
11:51:03.645;0;Wrist;1;56315;9,49;-0,6974577962393567;0;0;-0,3218115727618488;-0,6974577962393567;0,3349711600085452;1,922666096987823;-1,9837031159398175;-2,1362956633198036
11:51:03.645;0;Wrist;1;56316;9,49;-0,6149113675725577;0;0;-0,22132023071993165;-0,6149113675725577;0,18423414694566942;2,7466658528397474;-5,188146610919523;0,7019257179479355
11:51:03.645;0;Wrist;1;56317;9,49;0;0;0;-0,10527665326872311;-0,48211922317995237;0,13997008888039034;3,662221137119663;-7,843256935331278;3,5096285897396773
11:51:03.645;0;Wrist;1;56318;9,49;0;0;0;-0,052638326634361556;-0,2871181371501816;0,1292031646979049;4,303109836115604;-9,369182409131138;5,3102206488235115
11:51:03.645;0;Wrist;1;56319;9,49;0;0;0;-0,13039949623001038;-0,17585985602416304;0,2273018585772271;4,852443006683553;-11,169774468214973;6,103701895199438
11:51:03.670;0;Mov;1;9956;9,6;0;0;0;0,031104465230476736;0,19380473959604938;0,0023926511894857296;-3,662221137119663;-3,69273964659566;-1,0376293221839046
11:51:03.670;0;Mov;1;9957;9,6;0;0;0;0,07536851398224585;0,06101260637965598;-0,0478530228583636;-4,089480269783624;-4,089480269783624;-1,3428144169438765
11:51:03.670;0;Mov;1;9958;9,6;0;0;0;-0,16389660030957212;-0,1064729773500206;0,2273018585772271;-5,005035554063539;-3,662221137119663;-1,5564439832758568
11:51:03.670;0;Mov;1;9959;9,6;0;0;0;-0,2512283700064089;-0,08135014183954131;0,20935697500534073;-6,714072084719382;-6,653035065767388;-1,4954069643238623
11:51:03.670;0;Mov;1;9960;9,6;0;0;0;0,1315958128604999;-0,09690236979802469;-0,07417218990094836;-6,8666646320993685;-10,498367259743034;-1,5564439832758568
11:51:03.671;0;Wrist;1;56320;9,59;0;0;0;-0,20457167868015075;-0,07297585836884289;0,22849819010933256;5,798516800439467;-14,252143925290689;6,714072084719382
11:51:03.671;0;Wrist;1;56321;9,59;0;0;0;-0,07297585836884289;-0,003588976900647469;0,10886562551261558;6,561479537339396;-17,517624439222388;7,049775688955352
11:51:03.671;0;Wrist;1;56322;9,59;0;0;0;0,1339884610230949;0,0478530228583636;-0,12681051653530992;6,653035065767388;-19,13510544145024;6,775109103671377
11:51:03.671;0;Wrist;1;56323;9,59;0;0;0;0,41632131674970246;0,07895748622613834;-0,28113650929288614;5,76799829096347;-18,06695760979034;5,859553819391461
11:51:03.672;0;Wrist;1;56324;9,59;0;0;0;0,4426404614398633;0,0358897671437727;-0,29549242807168796;4,394665364543596;-14,435254982146672;4,486220892971588
11:51:03.694;0;Mov;1;9961;9,68;0;0;0;0,23328348643452254;-0,14475540010719626;-0,18782311173875393;-6,103701895199438;-9,765923032319101;-1,098666341135899
11:51:03.694;0;Mov;1;9962;9,68;0;0;0;0,25720999786370435;-0,12681051653530992;-0,1818414838814585;-5,096591082491531;-7,93481246375927;-0,5188146610919523
11:51:03.694;0;Mov;1;9963;9,68;0;0;0;0,35770133990562153;-0,09809870133013016;-0,22610554194673757;-3,326517532883694;-6,134220404675435;-0,030518509475997192
11:51:03.694;0;Mov;1;9964;9,68;0;0;0;0,36487929929502244;-0,19260842296555986;-0,25362103307061984;-1,1291848506118962;-3,2349620044557024;0,45777764213995786
11:51:03.694;0;Mov;1;9965;9,68;0;0;0;0,09809870133013016;-0,1674855800042726;-0,013159581658590389;0,5798516800439466;-0,5188146610919523;1,0681478316599018
11:51:03.753;0;Mov;1;9966;9,84;0;0;0;0,04306772280776963;-0,0693868861249504;0,003588976900647469;1,281777397991882;-0,45777764213995786;1,2207403790398876
11:51:03.754;0;Mov;1;9967;9,84;0;0;0;0,16509293184167761;-0,026319163317180778;-0,09092074194072924;1,73955504013184;-0,8239997558519242;1,1902218695638904
11:51:03.754;0;Mov;1;9968;9,84;0;0;0;0,13518479255520036;0,056227302603658026;-0,05742363041035951;2,4719992675557725;0;0,9460737937559129
11:51:03.754;0;Mov;1;9969;9,84;0;0;0;0,1292031646979049;0,09809870133013016;-0,04426404688906713;3,051850947599719;0,7019257179479355;0,8239997558519242
11:51:03.754;0;Mov;1;9970;9,84;0;0;0;0,16509293184167761;0,0717795342875454;-0,021533861403884816;3,5706656086916717;1,3428144169438765;0,4882961516159551
11:51:03.761;0;Wrist;1;56325;9,94;0;0;0;0,47972656011574144;0,028711815205179753;-0,3134373116435743;2,807702871791742;-9,765923032319101;2,8687398907437363
11:51:03.761;0;Wrist;1;56326;9,94;0;0;0;0,4270882409321879;0,03708609495047418;-0,297885061332667;1,2207403790398876;-5,035554063539537;1,5564439832758568
11:51:03.761;0;Wrist;1;56327;9,94;0;0;0;0,31582994490455335;0,08254646592083881;-0,2488357218438139;-0,45777764213995786;-0,7019257179479355;0,3357036042359691
11:51:03.761;0;Wrist;1;56328;9,94;0;0;0;0,1184362330646115;0,02273018548518231;-0,117239908983314;-2,1057771538438064;1,73955504013184;-0,3051850947599719
11:51:03.761;0;Wrist;1;56329;9,94;0;0;0;0,10886562551261558;-0,06220893046095347;-0,040675070919770656;-3,0823694570757163;2,380443739127781;-0,6103701895199438
11:51:03.791;0;Wrist;1;56330;9,96;0;0;0;0,17825251908837397;-0,020337535459885328;-0,11604358490201651;-3,6011841181676685;3,0823694570757163;-1,0376293221839046
11:51:03.791;0;Wrist;1;56331;9,96;0;0;0;0,1076693014313181;-0,1387737722499008;0,0023926511894857296;-3,967406231879635;4,394665364543596;-1,4954069643238623
11:51:03.791;0;Wrist;1;56332;9,96;0;0;0;0,12202521275931195;-0,13638112408730582;0,031104465230476736;-3,7537766655476545;5,1576281014435255;-1,6785180211798456
11:51:03.791;0;Wrist;1;56333;9,96;0;0;0;0,09809870133013016;-0,1292031646979049;0,07297585836884289;-3,357036042359691;6,0121463667714465;-1,9531846064638203
11:51:03.791;0;Wrist;1;56334;9,96;0;0;0;-0,0023926511894857296;-0,22610554194673757;0,1387737722499008;-2,685628833887753;6,134220404675435;-2,2278511917477952
11:51:03.843;0;Mov;1;9971;10,07;0;0;0;0,02990813928647725;0,07536851398224585;0,11245460520731605;3,204443494979705;2,4719992675557725;0,4272591326639607
11:51:03.843;0;Mov;1;9972;10,07;0;0;0;-0,0346934430624752;0,16509293184167761;0,11245460520731605;1,9837031159398175;1,8921475875118259;0,24414807580797754
11:51:03.843;0;Mov;1;9973;10,07;0;0;0;0,040675070919770656;0,08015381775824382;0,058619954491657;1,0376293221839046;0,7629627368999298;0,061037018951994385
11:51:03.843;0;Mov;1;9974;10,07;0;0;0;-0,040675070919770656;0,04426404688906713;0,13638112408730582;0,45777764213995786;0,3967406231879635;0,030518509475997192
11:51:03.843;0;Mov;1;9975;10,07;0;0;0;0,04187139500106815;0,0933133975541322;0,019141209515885837;-0,030518509475997192;-0,793481246375927;-0,18311105685598317
11:51:03.845;0;Mov;1;9976;9,6;0;0;0;0,119632557145909;0,0346934430624752;-0,027515489261180266;-0,27466658528397475;-0,9765923032319102;-0,5798516800439466
11:51:03.845;0;Mov;1;9977;9,6;0;0;0;0,17227089123107853;-0,00837427881394343;-0,09690236979802469;-0,030518509475997192;-0,7019257179479355;-0,6103701895199438
11:51:03.845;0;Mov;1;9978;9,6;0;0;0;0,119632557145909;-0,04187139500106815;-0,038282419031771674;0,18311105685598317;0,09155552842799158;-0,3967406231879635
11:51:03.845;0;Mov;1;9979;9,6;0;0;0;0,06699423051154745;-0,0119632557145909;0,010766930701942408;0,21362956633198035;0,45777764213995786;-0,12207403790398877
11:51:03.845;0;Mov;1;9980;9,6;0;0;0;0,07417218990094836;0,020337535459885328;0,0011963255947428648;0,030518509475997192;0,18311105685598317;0
11:51:03.880;0;Wrist;1;56335;10,05;0;0;0;-0,09211707347283471;-0,30027772439687794;0,18543046357615894;-1,9531846064638203;5,462813196203498;-1,9837031159398175
11:51:03.880;0;Wrist;1;56336;10,05;0;0;0;-0,13279214439260537;-0,31224098011146884;0,25362103307061984;-1,0071108127079074;3,9063692129276406;-1,2207403790398876
11:51:03.881;0;Wrist;1;56337;10,05;0;0;0;-0,06819056204365291;-0,32061527103297527;0,2009826989854503;0,18311105685598317;1,4954069643238623;-0,09155552842799158
11:51:03.881;0;Wrist;1;56338;10,05;0;0;0;0,04426404688906713;-0,19260842296555986;0,07776116214484084;0,9155552842799157;0,21362956633198035;0,6103701895199438
11:51:03.881;0;Wrist;1;56339;10,05;0;0;0;0,12441786092190694;-0,16030763551648763;0,025122837373181287;1,3122959074678793;-0,18311105685598317;0,9765923032319102
11:51:03.907;0;Mov;1;9981;9,85;0;0;0;0,0945097216354297;-0,02273018548518231;-0,040675070919770656;-0,12207403790398877;0,21362956633198035;0
11:51:03.909;0;Mov;1;9982;9,85;0;0;0;0,1435590685750908;-0,027515489261180266;-0,06340525826765496;0,15259254737998595;0,3357036042359691;0,15259254737998595
11:51:03.909;0;Mov;1;9983;9,85;0;0;0;0,1543260076591922;-0,009570604757942918;-0,0466566987770661;0,5798516800439466;0,9155552842799157;0,12207403790398877
11:51:03.909;0;Mov;1;9984;9,85;0;0;0;0,13518479255520036;-0,03947874311306917;-0,06579790643024995;1,2512588885158848;1,5564439832758568;0,18311105685598317
11:51:03.909;0;Mov;1;9985;9,85;0;0;0;0,10168767357402264;-0,05144199882766007;-0,004785302378971459;1,73955504013184;2,1057771538438064;0,15259254737998595
11:51:03.911;0;Wrist;1;56340;10,08;0;0;0;0,08613544561553926;-0,20217903051755579;0,0478530228583636;1,3428144169438765;0,15259254737998595;1,1597033600878932
11:51:03.911;0;Wrist;1;56341;10,08;0;0;0;0,0466566987770661;-0,10168767357402264;0,0466566987770661;1,586962492751854;0,3357036042359691;1,281777397991882
11:51:03.911;0;Wrist;1;56342;10,08;0;0;0;0,03349711525577372;-0,07536851398224585;0,00837427881394343;1,4648884548478653;-0,061037018951994385;1,4343699453718681
11:51:03.911;0;Wrist;1;56343;10,08;0;0;0;0,07895748622613834;-0,05742363041035951;-0,02273018548518231;1,098666341135899;-0,36622211371196634;1,3428144169438765
11:51:03.911;0;Wrist;1;56344;10,08;0;0;0;0,0933133975541322;-0,015552232615238368;-0,021533861403884816;0,5493331705679495;-0,3051850947599719;1,1597033600878932
11:51:03.969;0;Mov;1;9986;9,98;0;0;0;0,08733176969683676;0,009570604757942918;-0,03349711525577372;2,075258644367809;2,3499252296517836;0,27466658528397475
11:51:03.969;0;Mov;1;9987;9,98;0;0;0;0,1064729773500206;0,01674855762788686;-0,04306772280776963;2,288888210699789;2,5025177770317697;0,27466658528397475
11:51:03.969;0;Mov;1;9988;9,98;0;0;0;0,11484726082071901;-0,0119632557145909;-0,052638326634361556;2,7771843623157446;2,9908139286477247;0,21362956633198035
11:51:03.969;0;Mov;1;9989;9,98;0;0;0;0,08972441785943175;0,014355907602589877;-0,014355907602589877;3,021332438123722;3,2349620044557024;0,061037018951994385
11:51:03.969;0;Mov;1;9990;9,98;0;0;0;0,0598162785729545;0,0466566987770661;0,028711815205179753;2,7771843623157446;3,5401470992156745;0
11:51:03.971;0;Wrist;1;56345;10,08;0;0;0;0,15791497245227668;-0,031104465230476736;-0,058619954491657;0;-0,15259254737998595;0,8545182653279214
11:51:03.972;0;Wrist;1;56346;10,08;0;0;0;0,16868191153637807;-0,0239265114291818;-0,09929502541142765;-0,6103701895199438;0,6103701895199438;0,3051850947599719
11:51:03.972;0;Wrist;1;56347;10,08;0;0;0;0,11245460520731605;-0,08254646592083881;-0,020337535459885328;-1,0376293221839046;1,3733329264198737;-0,09155552842799158
11:51:03.972;0;Wrist;1;56348;10,08;0;0;0;0,08015381775824382;-0,0945097216354297;-0,003588976900647469;-1,2207403790398876;2,075258644367809;-0,36622211371196634
11:51:03.972;0;Wrist;1;56349;10,08;0;0;0;0,11006195704472106;-0,05742363041035951;-0,03230079117447623;-1,4954069643238623;2,288888210699789;-0,4882961516159551
11:51:03.973;0;Wrist;1;56350;9,97;0;0;0;0,1507370279644917;-0,13039949623001038;-0,02990813928647725;-1,6785180211798456;2,5940733054597613;-0,640888698995941
11:51:03.973;0;Wrist;1;56351;9,97;0;0;0;0,11365092928861355;-0,10408032918742562;-0,015552232615238368;-1,8005920590838342;3,448591570787683;-0,7324442274239327
11:51:03.973;0;Wrist;1;56352;9,97;0;0;0;0,04306772280776963;-0,1387737722499008;0,08254646592083881;-1,73955504013184;3,814813684499649;-0,8850367748039186
11:51:03.973;0;Wrist;1;56353;9,97;0;0;0;-0,003588976900647469;-0,14834437980189671;0,08972441785943175;-1,5259254737998595;3,662221137119663;-0,793481246375927
11:51:03.973;0;Wrist;1;56354;9,97;0;0;0;0,003588976900647469;-0,14595171673768578;0,0957060457167272;-1,281777397991882;3,1434064760277107;-0,640888698995941
11:51:04.031;0;Mov;1;9991;10,11;0;0;0;0,08493911408343378;0,0466566987770661;0,0011963255947428648;2,410962248603778;3,4180730613116856;-0,09155552842799158
11:51:04.031;0;Mov;1;9992;10,11;0;0;0;0,05383465071565905;0,0346934430624752;0,00837427881394343;2,166814172795801;3,662221137119663;-0,21362956633198035
11:51:04.031;0;Mov;1;9993;10,11;0;0;0;-0,0011963255947428648;0,0023926511894857296;0,07417218990094836;2,044740134891812;3,295999023407697;-0,3967406231879635
11:51:04.031;0;Mov;1;9994;10,11;0;0;0;-0,01794488357188635;0,031104465230476736;0,08852809377813425;1,5259254737998595;2,6245918149357585;-0,24414807580797754
11:51:04.031;0;Mov;1;9995;10,11;0;0;0;-0,013159581658590389;0,03349711525577372;0,08493911408343378;1,0071108127079074;1,586962492751854;-0,27466658528397475
11:51:04.032;0;Wrist;1;56355;9,97;0;0;0;-0,0023926511894857296;-0,1507370279644917;0,10886562551261558;-1,098666341135899;2,533036286507767;-0,4272591326639607
11:51:04.032;0;Wrist;1;56356;9,97;0;0;0;0,040675070919770656;-0,13518479255520036;0,08972441785943175;-0,7629627368999298;1,9837031159398175;-0,21362956633198035
11:51:04.033;0;Wrist;1;56357;9,97;0;0;0;0,04187139500106815;-0,10886562551261558;0,0705832102062479;-0,8545182653279214;1,8921475875118259;-0,18311105685598317
11:51:04.033;0;Wrist;1;56358;9,97;0;0;0;0,0693868861249504;-0,10527665326872311;0,06340525826765496;-0,7324442274239327;1,6174810022278512;-0,21362956633198035
11:51:04.033;0;Wrist;1;56359;9,97;0;0;0;0,021533861403884816;-0,12561418500320445;0,07656483806354335;-0,6103701895199438;1,4954069643238623;-0,24414807580797754
11:51:04.054;0;Mov;1;9996;9,96;0;0;0;0,02990813928647725;0,052638326634361556;0,06819056204365291;0,640888698995941;0,9460737937559129;-0,27466658528397475
11:51:04.054;0;Mov;1;9997;9,96;0;0;0;-0,03349711525577372;0;0,1411664204124958;0,12207403790398877;0,8239997558519242;-0,4272591326639607
11:51:04.054;0;Mov;1;9998;9,96;0;0;0;-0,04187139500106815;0;0,10049134949272515;-0,7019257179479355;-0,24414807580797754;-0,36622211371196634
11:51:04.054;0;Mov;1;9999;9,96;0;0;0;0,13997008888039034;0;-0,10049134949272515;-0,8850367748039186;-1,5259254737998595;-0,45777764213995786
11:51:04.054;0;Mov;1;10000;9,96;0;0;0;0,1339884610230949;-0,04904935066506508;-0,09092074194072924;-0,7019257179479355;-0,9460737937559129;-0,45777764213995786
11:51:04.093;0;Wrist;1;56360;9,95;0;0;0;-0,025122837373181287;-0,13279214439260537;0,1076693014313181;-0,36622211371196634;0,9460737937559129;-0,15259254737998595
11:51:04.093;0;Wrist;1;56361;9,95;0;0;0;0,028711815205179753;-0,1076693014313181;0,05383465071565905;-0,5188146610919523;0,27466658528397475;0,061037018951994385
11:51:04.093;0;Wrist;1;56362;9,95;0;0;0;0,0705832102062479;-0,08254646592083881;0,026319163317180778;-0,6103701895199438;0;0,21362956633198035
11:51:04.093;0;Wrist;1;56363;9,95;0;0;0;0,09690236979802469;-0,0705832102062479;0,003588976900647469;-0,8850367748039186;0,030518509475997192;0,12207403790398877
11:51:04.093;0;Wrist;1;56364;9,95;0;0;0;0,1387737722499008;-0,0837427900021363;-0,007177953801294938;-1,0376293221839046;0,36622211371196634;0,15259254737998595
11:51:04.114;0;Mov;1;10001;9,95;0;0;0;0,12800683316579944;-0,040675070919770656;-0,04187139500106815;-0,3967406231879635;-0,4272591326639607;-0,24414807580797754
11:51:04.114;0;Mov;1;10002;9,95;0;0;0;0,1435590685750908;-0,020337535459885328;-0,04426404688906713;0;-0,09155552842799158;-0,21362956633198035
11:51:04.114;0;Mov;1;10003;9,95;0;0;0;0,10408032918742562;-0,010766930701942408;-0,04306772280776963;0,21362956633198035;0,45777764213995786;-0,09155552842799158
11:51:04.114;0;Mov;1;10004;9,95;0;0;0;0,06460158234895245;-0,028711815205179753;0,003588976900647469;0,3357036042359691;0,8239997558519242;0
11:51:04.114;0;Mov;1;10005;9,95;0;0;0;0,0945097216354297;0,0119632557145909;-0,010766930701942408;0,3967406231879635;0,6714072084719382;0,12207403790398877
11:51:04.152;0;Wrist;1;56365;9,96;0;0;0;0,15671865582178715;-0,08254646592083881;-0,01794488357188635;-1,3733329264198737;1,1291848506118962;-0,09155552842799158
11:51:04.153;0;Wrist;1;56366;9,96;0;0;0;0,12800683316579944;-0,09929502541142765;0,009570604757942918;-1,6174810022278512;1,73955504013184;-0,3967406231879635
11:51:04.153;0;Wrist;1;56367;9,96;0;0;0;0,08972441785943175;-0,08972441785943175;0,026319163317180778;-1,3428144169438765;2,1362956633198036;-0,4882961516159551
11:51:04.153;0;Wrist;1;56368;9,96;0;0;0;0,02990813928647725;-0,08135014183954131;0,019141209515885837;-1,098666341135899;2,3499252296517836;-0,8545182653279214
11:51:04.153;0;Wrist;1;56369;9,96;0;0;0;0,0011963255947428648;-0,13757744071779535;0,07776116214484084;-1,0681478316599018;2,197332682271798;-0,9155552842799157
11:51:04.174;0;Mov;1;10006;9,96;0;0;0;0,0957060457167272;-0,021533861403884816;0;0,3967406231879635;1,0071108127079074;0,21362956633198035
11:51:04.174;0;Mov;1;10007;9,96;0;0;0;0,0705832102062479;-0,004785302378971459;0;0,45777764213995786;1,403851435895871;0,3357036042359691
11:51:04.174;0;Mov;1;10008;9,96;0;0;0;0,07895748622613834;0,007177953801294938;-0,031104465230476736;0,3967406231879635;1,3428144169438765;0,24414807580797754
11:51:04.174;0;Mov;1;10009;9,96;0;0;0;0,08254646592083881;0,020337535459885328;0,004785302378971459;0,45777764213995786;1,586962492751854;0,3051850947599719
11:51:04.174;0;Mov;1;10010;9,96;0;0;0;0,0119632557145909;0,05383465071565905;0,05144199882766007;0,12207403790398877;1,5259254737998595;0,18311105685598317
11:51:04.181;0;Wrist;1;56370;9,95;0;0;0;0,04904935066506508;-0,13638112408730582;0,04546037097036462;-1,2207403790398876;1,7090365306558428;-0,6103701895199438
11:51:04.181;0;Wrist;1;56371;9,95;0;0;0;0,08254646592083881;-0,12202521275931195;0,0358897671437727;-1,1597033600878932;1,3122959074678793;-0,6714072084719382
11:51:04.181;0;Wrist;1;56372;9,95;0;0;0;0,01794488357188635;-0,15193334459498123;0,052638326634361556;-0,9765923032319102;1,3733329264198737;-0,7324442274239327
11:51:04.181;0;Wrist;1;56373;9,95;0;0;0;-0,014355907602589877;-0,1411664204124958;0,06340525826765496;-0,7629627368999298;0,9460737937559129;-0,6103701895199438
11:51:04.181;0;Wrist;1;56374;9,95;0;0;0;-0,003588976900647469;-0,13638112408730582;0,07656483806354335;-0,7019257179479355;0,3967406231879635;-0,36622211371196634
11:51:04.204;0;Mov;1;10011;9,84;0;0;0;0,0119632557145909;0,031104465230476736;0,040675070919770656;-0,36622211371196634;1,1291848506118962;0,09155552842799158
11:51:04.204;0;Mov;1;10012;9,84;0;0;0;0,009570604757942918;-0,009570604757942918;0,03708609495047418;-0,45777764213995786;0,7629627368999298;-0,12207403790398877
11:51:04.204;0;Mov;1;10013;9,84;0;0;0;0;0,010766930701942408;0,04426404688906713;-0,9155552842799157;0,3967406231879635;-0,061037018951994385
11:51:04.204;0;Mov;1;10014;9,84;0;0;0;0,0239265114291818;0,028711815205179753;0,0239265114291818;-1,1902218695638904;-0,061037018951994385;-0,12207403790398877
11:51:04.204;0;Mov;1;10015;9,84;0;0;0;0,03230079117447623;0,04187139500106815;0,015552232615238368;-1,2512588885158848;-0,4882961516159551;-0,21362956633198035
11:51:04.235;0;Wrist;1;56375;9,69;0;0;0;0,015552232615238368;-0,14595171673768578;0,07297585836884289;-0,4272591326639607;-0,18311105685598317;-0,09155552842799158
11:51:04.235;0;Wrist;1;56376;9,69;0;0;0;0,0478530228583636;-0,1435590685750908;0,06340525826765496;-0,12207403790398877;-0,5188146610919523;0
11:51:04.235;0;Wrist;1;56377;9,69;0;0;0;0,06220893046095347;-0,13638112408730582;0,02273018548518231;0,030518509475997192;-0,5798516800439466;0,24414807580797754
11:51:04.235;0;Wrist;1;56378;9,69;0;0;0;0,11365092928861355;-0,11484726082071901;0,00837427881394343;0,18311105685598317;-0,5188146610919523;0,36622211371196634
11:51:04.235;0;Wrist;1;56379;9,69;0;0;0;0,09211707347283471;-0,11365092928861355;0,010766930701942408;0,18311105685598317;-0,061037018951994385;0,3051850947599719
11:51:04.270;0;Wrist;1;56380;9,83;0;0;0;0,0693868861249504;-0,0933133975541322;0,03230079117447623;0,12207403790398877;0,09155552842799158;0,15259254737998595
11:51:04.270;0;Wrist;1;56381;9,83;0;0;0;0,0598162785729545;-0,09211707347283471;0,0119632557145909;0,09155552842799158;0;0,15259254737998595
11:51:04.271;0;Wrist;1;56382;9,83;0;0;0;0,07536851398224585;-0,10408032918742562;0,01794488357188635;0,12207403790398877;-0,09155552842799158;0,18311105685598317
11:51:04.271;0;Wrist;1;56383;9,83;0;0;0;0,0717795342875454;-0,1064729773500206;0,01674855762788686;0,21362956633198035;0;0,030518509475997192
11:51:04.271;0;Wrist;1;56384;9,83;0;0;0;0,06699423051154745;-0,10408032918742562;0,038282419031771674;0,21362956633198035;0,030518509475997192;0
11:51:04.300;0;Mov;1;10016;9,51;0;0;0;0,04187139500106815;0,05144199882766007;0,009570604757942918;-1,5259254737998595;-0,4882961516159551;-0,5493331705679495
11:51:04.300;0;Mov;1;10017;9,51;0;0;0;0,05024567474636257;0,05383465071565905;0,02273018548518231;-1,7700735496078372;-0,793481246375927;-0,7629627368999298
11:51:04.300;0;Mov;1;10018;9,51;0;0;0;0,05144199882766007;0,0598162785729545;0,00837427881394343;-2,1057771538438064;-0,8850367748039186;-0,8850367748039186
11:51:04.300;0;Mov;1;10019;9,51;0;0;0;0,08493911408343378;0,031104465230476736;-0,01674855762788686;-2,410962248603778;-1,098666341135899;-1,1291848506118962
11:51:04.300;0;Mov;1;10020;9,51;0;0;0;0,10288399765532014;-0,007177953801294938;-0,04187139500106815;-2,380443739127781;-1,098666341135899;-1,1902218695638904
11:51:04.300;0;Mov;1;10021;9,5;0;0;0;0,06699423051154745;-0,014355907602589877;-0,021533861403884816;-2,2278511917477952;-0,640888698995941;-1,2207403790398876
11:51:04.301;0;Mov;1;10022;9,5;0;0;0;0,08254646592083881;-0,04187139500106815;-0,027515489261180266;-1,9531846064638203;-0,793481246375927;-1,0681478316599018
11:51:04.301;0;Mov;1;10023;9,5;0;0;0;0,09809870133013016;-0,020337535459885328;-0,031104465230476736;-1,5564439832758568;-0,640888698995941;-1,0071108127079074
11:51:04.301;0;Mov;1;10024;9,5;0;0;0;0,08972441785943175;-0,021533861403884816;-0,04546037097036462;-1,1291848506118962;-0,36622211371196634;-1,0071108127079074
11:51:04.301;0;Mov;1;10025;9,5;0;0;0;0,0945097216354297;-0,026319163317180778;-0,07297585836884289;-0,7629627368999298;0;-1,098666341135899
11:51:04.330;0;Wrist;1;56385;9,96;0;0;0;0,07297585836884289;-0,08972441785943175;0,021533861403884816;0,12207403790398877;-0,061037018951994385;0,09155552842799158
11:51:04.330;0;Wrist;1;56386;9,96;0;0;0;0,12322153684060945;-0,0945097216354297;-0,02990813928647725;0,27466658528397475;-0,15259254737998595;0,061037018951994385
11:51:04.330;0;Wrist;1;56387;9,96;0;0;0;0,16987822816686757;-0,09690236979802469;-0,058619954491657;0,030518509475997192;0,3051850947599719;0,09155552842799158
11:51:04.330;0;Wrist;1;56388;9,96;0;0;0;0,16150395214697713;-0,09929502541142765;-0,04546037097036462;-0,061037018951994385;1,0071108127079074;0,12207403790398877
11:51:04.330;0;Wrist;1;56389;9,96;0;0;0;0,11245460520731605;-0,1076693014313181;-0,03947874311306917;-0,18311105685598317;1,9837031159398175;0
11:51:04.357;0;Mov;1;10026;9,72;0;0;0;0,07895748622613834;-0,06579790643024995;-0,058619954491657;-0,12207403790398877;0,18311105685598317;-0,9460737937559129
11:51:04.357;0;Mov;1;10027;9,72;0;0;0;0,08613544561553926;-0,04187139500106815;-0,03947874311306917;0,640888698995941;0,45777764213995786;-0,8545182653279214
11:51:04.357;0;Mov;1;10028;9,72;0;0;0;0,1064729773500206;-0,031104465230476736;-0,03349711525577372;1,1902218695638904;0,5798516800439466;-0,640888698995941
11:51:04.357;0;Mov;1;10029;9,72;0;0;0;0,0705832102062479;-0,026319163317180778;-0,00598162785729545;1,586962492751854;1,1291848506118962;-0,640888698995941
11:51:04.358;0;Mov;1;10030;9,72;0;0;0;0,05024567474636257;0,0239265114291818;0,01674855762788686;1,9837031159398175;1,3733329264198737;-0,7324442274239327
11:51:04.361;0;Wrist;1;56390;9,72;0;0;0;0,15671865582178715;-0,11125828112601856;-0,04306772280776963;-0,27466658528397475;2,4414807580797753;0
11:51:04.361;0;Wrist;1;56391;9,72;0;0;0;0,13039949623001038;-0,06579790643024995;-0,01674855762788686;-0,3967406231879635;3,2349620044557024;-0,030518509475997192
11:51:04.361;0;Wrist;1;56392;9,72;0;0;0;0,0023926511894857296;-0,09211707347283471;0,058619954491657;-0,21362956633198035;3,662221137119663;-0,3051850947599719
11:51:04.361;0;Wrist;1;56393;9,72;0;0;0;0,0023926511894857296;-0,12561418500320445;0,0693868861249504;-0,09155552842799158;3,47911008026368;-0,21362956633198035
11:51:04.361;0;Wrist;1;56394;9,72;0;0;0;0,026319163317180778;-0,1315958128604999;0,04546037097036462;0,09155552842799158;2,9602954191717274;0,030518509475997192
11:51:04.414;0;Mov;1;10031;9,71;0;0;0;0,0837427900021363;0,007177953801294938;-0,019141209515885837;2,288888210699789;1,3122959074678793;-0,793481246375927
11:51:04.414;0;Mov;1;10032;9,71;0;0;0;0,07656483806354335;-0,026319163317180778;0,00598162785729545;2,7466658528397474;1,6174810022278512;-0,8545182653279214
11:51:04.414;0;Mov;1;10033;9,71;0;0;0;0,0837427900021363;-0,0346934430624752;0,003588976900647469;3,1434064760277107;1,6785180211798456;-0,8239997558519242
11:51:04.415;0;Mov;1;10034;9,71;0;0;0;0,10288399765532014;-0,1076693014313181;0,003588976900647469;3,9979247413556322;2,1362956633198036;-0,5188146610919523
11:51:04.415;0;Mov;1;10035;9,71;0;0;0;0,0693868861249504;-0,13638112408730582;-0,010766930701942408;4,638813440351573;2,807702871791742;-0,12207403790398877
11:51:04.421;0;Wrist;1;56395;9,95;0;0;0;0,019141209515885837;-0,20337534714804528;0,11125828112601856;0,5188146610919523;2,3499252296517836;0,15259254737998595
11:51:04.421;0;Wrist;1;56396;9,95;0;0;0;-0,015552232615238368;-0,22012391408944212;0,11006195704472106;0,7629627368999298;1,8921475875118259;0,5798516800439466
11:51:04.421;0;Wrist;1;56397;9,95;0;0;0;0,0119632557145909;-0,20816065837485123;0,08015381775824382;1,4648884548478653;1,2512588885158848;0,9765923032319102
11:51:04.421;0;Wrist;1;56398;9,95;0;0;0;0,0466566987770661;-0,15671865582178715;0,08254646592083881;2,2278511917477952;0,640888698995941;1,281777397991882
11:51:04.422;0;Wrist;1;56399;9,95;0;0;0;0,0598162785729545;-0,06101260637965598;0,05383465071565905;2,838221381267739;0,3967406231879635;1,1902218695638904
11:51:04.444;0;Mov;1;10036;9,82;0;0;0;0,05024567474636257;-0,0945097216354297;0,021533861403884816;4,760887478255562;2,9908139286477247;0,3357036042359691
11:51:04.445;0;Mov;1;10037;9,82;0;0;0;0,08254646592083881;-0,10527665326872311;0,027515489261180266;4,364146855067599;3,021332438123722;0,7019257179479355
11:51:04.445;0;Mov;1;10038;9,82;0;0;0;0,031104465230476736;-0,052638326634361556;0,0239265114291818;4,058961760307627;3,448591570787683;1,0071108127079074
11:51:04.445;0;Mov;1;10039;9,82;0;0;0;0,03947874311306917;-0,0011963255947428648;0,04426404688906713;3,7842951750236518;2,9602954191717274;1,2512588885158848
11:51:04.445;0;Mov;1;10040;9,82;0;0;0;0,04546037097036462;-0,010766930701942408;0,01794488357188635;3,3875545518356884;2,685628833887753;1,281777397991882
11:51:04.484;0;Wrist;1;56400;9,96;0;0;0;0,04187139500106815;-0,038282419031771674;0,0466566987770661;3,0823694570757163;0,3051850947599719;0,7324442274239327
11:51:04.484;0;Wrist;1;56401;9,96;0;0;0;0,1674855800042726;0,038282419031771674;-0,013159581658590389;3,2349620044557024;0,15259254737998595;0,27466658528397475
11:51:04.485;0;Wrist;1;56402;9,96;0;0;0;0,14714804826979125;0,07895748622613834;-0,04904935066506508;3,173924985503708;0,793481246375927;-0,4882961516159551
11:51:04.486;0;Wrist;1;56403;9,96;0;0;0;0,08493911408343378;-0,00598162785729545;0,009570604757942918;2,9297769096957307;1,0071108127079074;-1,3122959074678793
11:51:04.486;0;Wrist;1;56404;9,96;0;0;0;0,0837427900021363;-0,020337535459885328;-0,00598162785729545;2,8687398907437363;1,1597033600878932;-1,8921475875118259
11:51:04.507;0;Mov;1;10041;9,97;0;0;0;0,00598162785729545;-0,01674855762788686;0,025122837373181287;2,9908139286477247;2,6551103244117558;1,403851435895871
11:51:04.507;0;Mov;1;10042;9,97;0;0;0;-0,0023926511894857296;0,0358897671437727;0,04426404688906713;2,5940733054597613;2,0142216254158147;1,4954069643238623
11:51:04.507;0;Mov;1;10043;9,97;0;0;0;0,003588976900647469;0,07297585836884289;0,02273018548518231;2,410962248603778;1,3122959074678793;1,2207403790398876
11:51:04.507;0;Mov;1;10044;9,97;0;0;0;0,14236275194460127;0,26079899246002075;0,05024567474636257;1,8005920590838342;0,8239997558519242;1,1902218695638904
11:51:04.507;0;Mov;1;10045;9,97;0;0;0;0,23328348643452254;0,4306772057252724;0;0,36622211371196634;1,3733329264198737;0,8239997558519242
11:51:04.511;0;Wrist;1;56405;9,84;0;0;0;0,18782311173875393;-0,015552232615238368;-0,05383465071565905;3,0823694570757163;1,0681478316599018;-2,4719992675557725
11:51:04.511;0;Wrist;1;56406;9,84;0;0;0;0,17825251908837397;-0,10288399765532014;0,0239265114291818;3,3875545518356884;1,73955504013184;-3,2349620044557024
11:51:04.511;0;Wrist;1;56407;9,84;0;0;0;0,040675070919770656;-0,052638326634361556;0,0598162785729545;4,272591326639607;2,197332682271798;-3,9063692129276406
11:51:04.511;0;Wrist;1;56408;9,84;0;0;0;-0,2153386028626362;-0,22969452164143803;0,26558428878521073;5,340739158299509;1,7090365306558428;-4,0284432508316295
11:51:04.511;0;Wrist;1;56409;9,84;0;0;0;-0,234479817966628;-0,20816065837485123;0,2153386028626362;6,256294442579424;-1,0376293221839046;-3,1128879665517135
11:51:04.563;0;Mov;1;10046;9,95;0;0;0;0,13279214439260537;0,35770133990562153;-0,027515489261180266;-0,9155552842799157;2,685628833887753;-0,15259254737998595
11:51:04.563;0;Mov;1;10047;9,95;0;0;0;0,03708609495047418;0,2715659166425062;-0,04306772280776963;-1,4954069643238623;3,1128879665517135;-1,281777397991882
11:51:04.563;0;Mov;1;10048;9,95;0;0;0;0,09690236979802469;0,040675070919770656;-0,07417218990094836;-1,6174810022278512;3,021332438123722;-1,9531846064638203
11:51:04.563;0;Mov;1;10049;9,95;0;0;0;0,07297585836884289;-0,21773125102523117;-0,05024567474636257;-1,7700735496078372;3,204443494979705;-1,6174810022278512
11:51:04.563;0;Mov;1;10050;9,95;0;0;0;0,4773339268547624;-0,23089083827192755;-0,16270028367908262;-2,197332682271798;2,6551103244117558;-0,9460737937559129
11:51:04.571;0;Wrist;1;56410;9,96;0;0;0;-0,1387737722499008;-0,26438795725310527;0,2009826989854503;6,775109103671377;-4,333628345591602;-2,1057771538438064
11:51:04.571;0;Wrist;1;56411;9,96;0;0;0;0,15791497245227668;-0,2679769220461898;0,0598162785729545;6,805627613147374;-6,256294442579424;-1,1597033600878932
11:51:04.571;0;Wrist;1;56412;9,96;0;0;0;0,14475540010719626;-0,32779320061914424;0,06340525826765496;5,981627857295449;-6,103701895199438;-0,3051850947599719
11:51:04.571;0;Wrist;1;56413;9,96;0;0;0;-0,22969452164143803;-0,45938904328287605;0,234479817966628;5,249183629871517;-5,645924253059481;0,9460737937559129
11:51:04.573;0;Wrist;1;56414;9,96;0;-0,6208929954298532;0;-0,6208929954298532;-0,38402051439901425;0,2596026609279153;5,035554063539537;-7,232886745811334;3,5706656086916717
11:51:04.653;0;Mov;1;10051;10,21;0;0,6101260414441358;0;0,6101260414441358;-0,19978636745334483;-0,2859218056180761;-2,4414807580797753;5,4322946867275;0,4272591326639607
11:51:04.655;0;Mov;1;10052;10,21;0;0;0;0,22132023071993165;0,056227302603658026;0,0023926511894857296;-2,075258644367809;9,643848994415112;1,2207403790398876
11:51:04.655;0;Mov;1;10053;10,21;0;0;0;-0,18543046357615894;0,17227089123107853;0,04426404688906713;-1,5259254737998595;10,345774712363049;1,5564439832758568
11:51:04.655;0;Mov;1;10054;10,21;0;-0,5491134611423079;0;-0,5491134611423079;0,2679769220461898;0,27635121296769616;-1,403851435895871;8,423108615375225;1,098666341135899
11:51:04.655;0;Mov;1;10055;10,21;0;-0,5347575423635059;0;-0,5347575423635059;0,21892758255733666;0,34454178246215705;-1,8616290780358287;3,0823694570757163;0,4272591326639607
11:51:04.656;0;Mov;1;10056;9,85;0;0;0;0,08852809377813425;-0,0346934430624752;0,06101260637965598;-1,8921475875118259;-1,7090365306558428;-0,061037018951994385
11:51:04.656;0;Mov;1;10057;9,85;0;0;0;-0,003588976900647469;-0,1292031646979049;0,16150395214697713;-1,3428144169438765;-0,6714072084719382;-0,640888698995941
11:51:04.656;0;Mov;1;10058;9,85;0;0;0;-0,07776116214484084;-0,24165777735602892;0,13518479255520036;-0,8545182653279214;-2,1057771538438064;0,09155552842799158
11:51:04.656;0;Mov;1;10059;9,85;0;0;0;-0,07895748622613834;-0,20696432684274574;-0,014355907602589877;-0,7324442274239327;-4,364146855067599;1,0376293221839046
11:51:04.657;0;Mov;1;10060;9,85;0;0;0;0,0598162785729545;-0,06340525826765496;-0,058619954491657;-0,640888698995941;-5,554368724631489;1,5259254737998595
11:51:04.661;0;Wrist;1;56415;10,06;0;-0,5192053218558306;0;-0,5192053218558306;-0,28113650929288614;0,25720999786370435;4,943998535111545;-12,024292733542893;6,4394054994354075
11:51:04.661;0;Wrist;1;56416;10,06;0;0;0;0,15911130398438214;-0,08135014183954131;-0,02990813928647725;5,005035554063539;-15,717032380138553;7,965330973235267
11:51:04.662;0;Wrist;1;56417;10,06;0;0,6388378790017396;0;0,6388378790017396;-0,08135014183954131;-0,20217903051755579;4,577776421399578;-12,604144413586841;8,056886501663259
11:51:04.662;0;Wrist;1;56418;10,06;0;0;0;0,02273018548518231;-0,14714804826979125;0,17107455969897306;3,936887722403638;-6,653035065767388;7,080294198431349
11:51:04.662;0;Wrist;1;56419;10,06;0;0;0;-0,16987822816686757;-0,19978636745334483;0,3828241828669088;4,150517288735618;-8,087405011139255;6,8666646320993685
11:51:04.663;0;Wrist;1;56420;9,82;0;0;0;-0,05742363041035951;-0,06101260637965598;0,1866267951082644;5,21866512039552;-12,26844080935087;6,927701651051363
11:51:04.663;0;Wrist;1;56421;9,82;0;0;0;-0,25362103307061984;-0,18423414694566942;0,20935697500534073;6,256294442579424;-15,015106662190618;6,469924008911405
11:51:04.663;0;Wrist;1;56422;9,82;-0,5730399725714896;0;0;-0,2679769220461898;-0,5730399725714896;0,3385601546048616;6,530961027863399;-19,89806817835017;6,4394054994354075
11:51:04.663;0;Wrist;1;56423;9,82;0;0;0;-0,06340525826765496;-0,3265968988902707;0,4019653979709006;6,103701895199438;-24,842066713461715;6,622516556291391
11:51:04.663;0;Wrist;1;56424;9,82;0;0;0;0,3660756308271279;0,009570604757942918;-0,15552232428968168;5,76799829096347;-26,490066225165563;5,340739158299509
11:51:04.716;0;Mov;1;10061;9,97;0;0;0;0,39119847378841516;0,1531296761270867;-0,33018586368335523;-0,3051850947599719;-6,103701895199438;1,3122959074678793
11:51:04.716;0;Mov;1;10062;9,97;0;0;0;0,00598162785729545;0,04904935066506508;-0,026319163317180778;0,15259254737998595;-2,685628833887753;0,8239997558519242
11:51:04.716;0;Mov;1;10063;9,97;0;0;0;0,0346934430624752;0,13039949623001038;-0,15193334459498123;-0,45777764213995786;-4,547257911923582;1,1902218695638904
11:51:04.717;0;Mov;1;10064;9,97;0;0;0;-0,3421491193979461;-0,08493911408343378;0,07536851398224585;-1,6174810022278512;-3,9063692129276406;1,0376293221839046
11:51:04.717;0;Mov;1;10065;9,97;0;0;0;-0,17466353939367352;-0,0933133975541322;0,21653493439474167;-2,9602954191717274;-6,40888698995941;0,9765923032319102
11:51:04.746;0;Wrist;1;56425;10,02;0;0;0;0,3050630207220679;0,16389660030957212;-0,32420423582605973;5,096591082491531;-22,980437635425886;2,685628833887753
11:51:04.746;0;Wrist;1;56426;10,02;0;0;0;0,41632131674970246;0,11245460520731605;-0,3505234103194525;4,943998535111545;-18,06695760979034;0,8545182653279214
11:51:04.747;0;Wrist;1;56427;10,02;0;0;0;0,22012391408944212;0,26438795725310527;-0,3349711600085452;5,4322946867275;-12,421033356730858;1,7090365306558428
11:51:04.747;0;Wrist;1;56428;10,02;0;0;0;-0,21174962316793572;0,06460158234895245;0,0717795342875454;5,066072573015534;-9,643848994415112;3,5706656086916717
11:51:04.748;0;Wrist;1;56429;10,02;0;0;0;-0,009570604757942918;-0,08733176969683676;0,1531296761270867;5,188146610919523;-10,498367259743034;4,394665364543596
11:51:04.774;0;Mov;1;10066;10,07;0;0;0;0,43665883358256785;0,06220893046095347;0,03708609495047418;-3,814813684499649;-9,12503433332316;1,3733329264198737
11:51:04.774;0;Mov;1;10067;10,07;0;0;0;0,48331555471205784;-0,01794488357188635;-0,18423414694566942;-4,150517288735618;-7,080294198431349;1,4954069643238623
11:51:04.774;0;Mov;1;10068;10,07;0;0;0;-0,12800683316579944;-0,1076693014313181;0,2787438760319071;-3,936887722403638;-2,9602954191717274;1,922666096987823
11:51:04.774;0;Mov;1;10069;10,07;0;0;0;-0,031104465230476736;-0,0705832102062479;0,20337534714804528;-4,1810357982116155;-6,530961027863399;2,563554795983764
11:51:04.774;0;Mov;1;10070;10,07;0;0;0;0,0358897671437727;-0,06101260637965598;-0,14595171673768578;-4,425183874019593;-9,552293465987121;3,6317026276436657
11:51:04.781;0;Wrist;1;56430;9,96;0;0;0,5658619833788567;-0,22849819010933256;0,06340525826765496;0,5658619833788567;5,401776177251503;-11,383404034546952;4,211554307687613
11:51:04.781;0;Wrist;1;56431;9,96;0;0;0;0,04306772280776963;-0,11365092928861355;0,2488357218438139;7,690664387951292;-13,519699697866756;2,807702871791742
11:51:04.781;0;Wrist;1;56432;9,96;0;0;0;0,11484726082071901;0,21414228623214668;-0,38402051439901425;8,239997558519242;-13,672292245246743;0,12207403790398877
11:51:04.781;0;Wrist;1;56433;9,96;0;0,5467207980780968;-0,5658619833788567;0,5467207980780968;0,119632557145909;-0,5658619833788567;6,622516556291391;-11,749626148258919;-0,45777764213995786
11:51:04.781;0;Wrist;1;56434;9,96;0;0;0;-0,07417218990094836;-0,1770561875562685;0,2823328408249916;6,0121463667714465;-7,965330973235267;-0,21362956633198035
11:51:04.804;0;Mov;1;10071;9,96;0;0,5538987276642658;0;0,5538987276642658;0,3828241828669088;-0,09809870133013016;-4,7303689687795645;-9,155552842799157;3,2654805139316996
11:51:04.804;0;Mov;1;10072;9,96;0;0;0;0,2990813928647725;-0,052638326634361556;-0,43187353725737787;-4,272591326639607;-7,232886745811334;3,295999023407697
11:51:04.804;0;Mov;1;10073;9,96;0;-0,5060457048059023;0,5359538440923796;-0,5060457048059023;-0,2548173646027253;0,5359538440923796;-3,7537766655476545;0,6714072084719382;3,173924985503708
11:51:04.804;0;Mov;1;10074;9,96;0;0;0;0,11484726082071901;0,07297585836884289;0,19021577480296487;-4,333628345591602;-7,93481246375927;4,211554307687613
11:51:04.804;0;Mov;1;10075;9,96;0;0;0;0,1985900508228553;-0,12681051653530992;-0,22371287888252664;-4,24207281716361;-9,552293465987121;5,4322946867275
11:51:04.840;0;Wrist;1;56435;9,84;-0,6017517505226295;0;0;-0,11604358490201651;-0,6017517505226295;0,44383679297196876;8,02636799218726;-10,315256202887051;0,3357036042359691
11:51:04.840;0;Wrist;1;56436;9,84;0;0;0;0,415124985217597;-0,4091433573603015;-0,10527665326872311;10,864589373455;-13,122959074678793;0,9155552842799157
11:51:04.841;0;Wrist;1;56437;9,84;0;0;0;-0,2440504255186239;0,12322153684060945;0,28352917235709707;12,237922299874874;-12,207403790398876;1,4648884548478653
11:51:04.841;0;Wrist;1;56438;9,84;-0,5108310309343241;0;-0,5120273326631978;0,4498184208292642;-0,5108310309343241;-0,5120273326631978;14,984588152714622;-15,655995361186559;2,197332682271798
11:51:04.841;0;Wrist;1;56439;9,84;0;0,9044221677869503;-1,1652211304437392;0,9044221677869503;0,13279214439260537;-1,1652211304437392;14,923551133762627;-12,329477828302865;2,5025177770317697
11:51:04.864;0;Mov;1;10076;9,84;0;0;0;-0,22849819010933256;-0,10886562551261558;0,23328348643452254;-3,814813684499649;-5,096591082491531;5,340739158299509
11:51:04.864;0;Mov;1;10077;9,84;0;0;0;0,038282419031771674;0,1292031646979049;0,04546037097036462;-4,272591326639607;-10,315256202887051;5,340739158299509
11:51:04.864;0;Mov;1;10078;9,84;0;0;0;-0,02273018548518231;-0,10408032918742562;-0,16270028367908262;-4,425183874019593;-11,383404034546952;5,3102206488235115
11:51:04.864;0;Mov;1;10079;9,84;0;0;0;0,10288399765532014;0,09690236979802469;0,03349711525577372;-4,211554307687613;-8,6977752006592;4,638813440351573
11:51:04.864;0;Mov;1;10080;9,84;0;0,6388378790017396;-0,6196966340945158;0,6388378790017396;0,18423414694566942;-0,6196966340945158;-4,272591326639607;-11,322367015594958;4,1810357982116155
11:51:04.893;0;Mov;1;10081;9,95;0;0;0;0,08015381775824382;-0,09929502541142765;-0,08135014183954131;-3,5096285897396773;-0,9765923032319102;3,9063692129276406
