Frecuencia (Hz);100
time;timespan;canal;id;sample;gap;accX;accY;accZ;rawAccX;rawAccY;rawAccZ;rawGirX;rawGirY;rawGirZ
11:53:54.002;0;Wrist;1;56830;18,51;0;0;0;0,0837427900021363;-0,09211707347283471;-0,0239265114291818;-4,943998535111545;-10,925626392406995;5,096591082491531
11:53:54.004;0;Wrist;1;56831;18,51;0;0;0;0,12441786092190694;-0,12441786092190694;-0,0239265114291818;-4,974517044587542;-10,345774712363049;3,967406231879635
11:53:54.004;0;Wrist;1;56832;18,51;0;0;0;0,1435590685750908;-0,17107455969897306;-0,019141209515885837;-4,821924497207556;-9,857478560747094;3,1434064760277107
11:53:54.004;0;Wrist;1;56833;18,51;0;0;0;0,1914120914334544;-0,19500107112815485;-0,02273018548518231;-3,8758507034516434;-8,239997558519242;1,9837031159398175
11:53:54.004;0;Wrist;1;56834;18,51;0;0;0;0,18303781541356395;-0,26917325357829525;0,013159581658590389;-2,5940733054597613;-5,920590838343455;1,0376293221839046
11:53:54.005;0;Wrist;1;56835;15,92;0;0;0;0,010766930701942408;-0,25362103307061984;0,027515489261180266;-0,9155552842799157;-3,8758507034516434;0,5493331705679495
11:53:54.006;0;Wrist;1;56836;15,92;0;0;0;-0,2548173646027253;-0,2715659166425062;0,0023926511894857296;-0,27466658528397475;-4,1810357982116155;0,45777764213995786
11:53:54.006;0;Wrist;1;56837;15,92;0;0;0;0,0011963255947428648;-0,31224098011146884;0,004785302378971459;-0,7629627368999298;-5,340739158299509;0,5798516800439466
11:53:54.006;0;Wrist;1;56838;15,92;0;0;0;-0,026319163317180778;-0,21892758255733666;-0,04426404688906713;-0,7629627368999298;-5,859553819391461;1,098666341135899
11:53:54.006;0;Wrist;1;56839;15,92;0;0;0;-0,031104465230476736;-0,2596026609279153;-0,031104465230476736;-1,1902218695638904;-6,530961027863399;0,8850367748039186
11:53:54.007;0;Wrist;1;56840;13,96;0;0;0;0,03230079117447623;-0,3026703874610889;-0,019141209515885837;-0,7629627368999298;-5,493331705679495;0,640888698995941
11:53:54.007;0;Wrist;1;56841;13,96;0;0;0;-0,03947874311306917;-0,2512283700064089;-0,0598162785729545;-0,45777764213995786;-4,547257911923582;0,5798516800439466
11:53:54.007;0;Wrist;1;56842;13,96;0;0;0;0,0358897671437727;-0,3146336431756798;0;-0,3051850947599719;-4,1810357982116155;0,6103701895199438
11:53:54.007;0;Wrist;1;56843;13,96;0;0;0;0;-0,3026703874610889;-0,03349711525577372;0,12207403790398877;-3,295999023407697;0,6103701895199438
11:53:54.007;0;Wrist;1;56844;13,96;0;0;0;-0,0239265114291818;-0,2667806203173162;-0,0346934430624752;0,36622211371196634;-2,8687398907437363;0,6714072084719382
11:53:54.008;0;Mov;1;10491;11,92;0;0;0;-0,06220893046095347;-0,04187139500106815;-0,3026703874610889;2,5940733054597613;-1,4954069643238623;-0,7019257179479355
11:53:54.008;0;Mov;1;10492;11,92;0;0;0;-0,08254646592083881;-0,05742363041035951;-0,30027772439687794;2,71614734336375;0,45777764213995786;-0,12207403790398877
11:53:54.008;0;Mov;1;10493;11,92;0;0;0;-0,15552232428968168;-0,04546037097036462;-0,20217903051755579;2,71614734336375;2,197332682271798;0,18311105685598317
11:53:54.008;0;Mov;1;10494;11,92;0;0;0;-0,29549242807168796;-0,0466566987770661;-0,13638112408730582;2,380443739127781;3,662221137119663;0,6714072084719382
11:53:54.008;0;Mov;1;10495;11,92;0;0;0;-0,20816065837485123;0,0598162785729545;-0,21174962316793572;2,3194067201757864;3,967406231879635;0,8545182653279214
11:53:54.012;0;Wrist;1;56845;12,53;0;0;0;0,08015381775824382;-0,30027772439687794;-0,03349711525577372;0,7019257179479355;-2,533036286507767;0,7019257179479355
11:53:54.012;0;Wrist;1;56846;12,53;0;0;0;0,00837427881394343;-0,25362103307061984;-0,05383465071565905;1,1902218695638904;-1,3733329264198737;0,9460737937559129
11:53:54.012;0;Wrist;1;56847;12,53;0;0;0;0,009570604757942918;-0,2512283700064089;-0,05144199882766007;1,4343699453718681;-0,9155552842799157;0,9155552842799157
11:53:54.012;0;Wrist;1;56848;12,53;0;0;0;0,07417218990094836;-0,32300790429395426;-0,07536851398224585;1,4648884548478653;-0,5493331705679495;0,8239997558519242
11:53:54.012;0;Wrist;1;56849;12,53;0;0;0;0,18782311173875393;-0,3098483170472579;-0,08733176969683676;1,6174810022278512;0,5493331705679495;0,7324442274239327
11:53:54.014;0;Mov;1;10496;10,86;0;0;0;-0,03708609495047418;0,08493911408343378;-0,2560136663315989;2,075258644367809;4,821924497207556;0,6103701895199438
11:53:54.014;0;Mov;1;10497;10,86;0;0;0;-0,0837427900021363;0,015552232615238368;-0,16987822816686757;1,8311105685598315;6,95822016052736;0,5493331705679495
11:53:54.014;0;Mov;1;10498;10,86;0;0;0;-0,13997008888039034;-0,025122837373181287;-0,16389660030957212;1,8005920590838342;8,331553086947233;0,7019257179479355
11:53:54.015;0;Mov;1;10499;10,86;0;0;0;-0,3505234103194525;-0,025122837373181287;-0,052638326634361556;1,73955504013184;9,24710837122715;1,0071108127079074
11:53:54.015;0;Mov;1;10500;10,86;0;0;0;-0,2751548814355907;0,031104465230476736;-0,0837427900021363;1,586962492751854;8,48414563432722;1,3122959074678793
11:53:54.015;0;Wrist;1;56850;11,34;0;0;0;0,027515489261180266;-0,24165777735602892;-0,031104465230476736;2,1057771538438064;1,7090365306558428;0,6714072084719382
11:53:54.015;0;Wrist;1;56851;11,34;0;0;0;0,0478530228583636;-0,20696432684274574;-0,0837427900021363;2,1362956633198036;1,922666096987823;0,15259254737998595
11:53:54.016;0;Wrist;1;56852;11,34;0;0;0;0,12800683316579944;-0,2679769220461898;-0,0346934430624752;2,2583697012237924;2,380443739127781;-0,4882961516159551
11:53:54.016;0;Wrist;1;56853;11,34;0;0;0;0,08254646592083881;-0,27635121296769616;-0,0945097216354297;2,5025177770317697;2,838221381267739;-0,9460737937559129
11:53:54.016;0;Wrist;1;56854;11,34;0;0;0;0,2129459547000412;-0,32300790429395426;-0,11484726082071901;2,0142216254158147;2,71614734336375;-0,793481246375927
11:53:54.017;0;Wrist;1;56855;10,33;0;0;0;0,08493911408343378;-0,1985900508228553;-0,0466566987770661;1,73955504013184;3,47911008026368;-0,6714072084719382
11:53:54.017;0;Wrist;1;56856;10,33;0;0;0;0,00837427881394343;-0,236872466129223;-0,02273018548518231;1,922666096987823;3,814813684499649;-1,1291848506118962
11:53:54.017;0;Wrist;1;56857;10,33;0;0;0;-0,015552232615238368;-0,2823328408249916;-0,004785302378971459;2,1057771538438064;4,24207281716361;-1,4343699453718681
11:53:54.017;0;Wrist;1;56858;10,33;0;0;0;-0,2667806203173162;-0,20576799531064027;0,052638326634361556;2,71614734336375;4,974517044587542;-1,3733329264198737
11:53:54.017;0;Wrist;1;56859;10,33;0;0;0;-0,02990813928647725;-0,36487929929502244;0,0358897671437727;2,71614734336375;4,211554307687613;-0,7019257179479355
11:53:54.041;0;Mov;1;10501;10,36;0;0;0;-0,20217903051755579;0,009570604757942918;-0,15791497245227668;1,4343699453718681;8,331553086947233;1,586962492751854
11:53:54.041;0;Mov;1;10502;10,36;0;0;0;-0,2799401777607807;-0,0011963255947428648;-0,10049134949272515;1,0681478316599018;9,063997314371166;1,6785180211798456
11:53:54.041;0;Mov;1;10503;10,36;0;0;0;-0,2440504255186239;-0,010766930701942408;-0,12082888867801446;0,6714072084719382;9,582811975463118;1,6785180211798456
11:53:54.042;0;Mov;1;10504;10,36;0;0;0;-0,2464430736812189;-0,07656483806354335;-0,0957060457167272;0,9155552842799157;10,071108127079073;1,6479995117038484
11:53:54.042;0;Mov;1;10505;10,36;0;0;0;-0,4139286536854915;-0,12800683316579944;-0,02990813928647725;1,6479995117038484;9,521774956511123;1,3428144169438765
11:53:54.070;0;Mov;1;10506;9,97;0;-0,6938688314462722;0;-0,6938688314462722;-0,16987822816686757;0,13039949623001038;2,075258644367809;8,02636799218726;1,6174810022278512
11:53:54.070;0;Mov;1;10507;9,97;0;-0,6053407749221777;0;-0,6053407749221777;-0,14475540010719626;0,10408032918742562;2,533036286507767;4,852443006683553;2,044740134891812
11:53:54.070;0;Mov;1;10508;9,97;0;0;0;-0,2715659166425062;0,00837427881394343;-0,06819056204365291;2,6245918149357585;2,685628833887753;2,7466658528397474
11:53:54.070;0;Mov;1;10509;9,97;0;0;0;-0,20935697500534073;-0,05742363041035951;-0,06220893046095347;1,9531846064638203;3,0823694570757163;3,1434064760277107
11:53:54.070;0;Mov;1;10510;9,97;0;0;0;-0,4773339268547624;-0,15671865582178715;0,12800683316579944;2,3194067201757864;3,1128879665517135;3,7232581560716573
11:53:54.106;0;Wrist;1;56860;10,96;0;0;0;-0,06460158234895245;-0,26917325357829525;-0,07417218990094836;2,9908139286477247;5,066072573015534;-0,3357036042359691
11:53:54.106;0;Wrist;1;56861;10,96;0;0;0;-0,11006195704472106;-0,22251656225203711;0,003588976900647469;2,0142216254158147;3,8758507034516434;-0,21362956633198035
11:53:54.106;0;Wrist;1;56862;10,96;0;0;0;-0,16270028367908262;-0,13279214439260537;0,00837427881394343;0,8239997558519242;2,533036286507767;-0,640888698995941
11:53:54.106;0;Wrist;1;56863;10,96;0;0;0;-0,003588976900647469;-0,1866267951082644;0,031104465230476736;-0,7019257179479355;0,030518509475997192;-1,3122959074678793
11:53:54.106;0;Wrist;1;56864;10,96;0;0;0;0,15552232428968168;-0,22251656225203711;0,03230079117447623;-1,4648884548478653;-1,0071108127079074;-1,922666096987823
11:53:54.108;0;Wrist;1;56865;10,14;0;0;0;0,0717795342875454;-0,21174962316793572;-0,010766930701942408;-1,0071108127079074;0,7629627368999298;-2,5025177770317697
11:53:54.108;0;Wrist;1;56866;10,14;0;0;0;-0,1914120914334544;-0,07536851398224585;-0,0119632557145909;-1,922666096987823;0,9460737937559129;-3,1128879665517135
11:53:54.108;0;Wrist;1;56867;10,14;0;-0,6149113675725577;0;-0,6149113675725577;0,1076693014313181;0,17346720786156805;-4,1810357982116155;-1,8921475875118259;-3,6317026276436657
11:53:54.108;0;Wrist;1;56868;10,14;0;-0,6783166109385967;0;-0,6783166109385967;-0,058619954491657;0,28352917235709707;-5,005035554063539;-6,653035065767388;-2,3499252296517836
11:53:54.108;0;Wrist;1;56869;10,14;0;0;0;-0,23567614949873347;-0,21174962316793572;0,1866267951082644;-5,371257667775506;-10,498367259743034;-0,15259254737998595
11:53:54.129;0;Mov;1;10511;10,11;0;-0,6364452159375286;0;-0,6364452159375286;-0,16868191153637807;0,1292031646979049;3,7842951750236518;0,6714072084719382;3,9979247413556322
11:53:54.129;0;Mov;1;10512;10,11;0;-0,7859859123699149;0;-0,7859859123699149;-0,16868191153637807;0,22371287888252664;4,1810357982116155;-1,3428144169438765;4,058961760307627
11:53:54.129;0;Mov;1;10513;10,11;0;-0,5144199957274087;0;-0,5144199957274087;-0,10288399765532014;0,1064729773500206;4,425183874019593;-3,6317026276436657;4,0284432508316295
11:53:54.129;0;Mov;1;10514;10,11;0;0;0;-0,29668875960379343;-0,07776116214484084;0,028711815205179753;4,4557023834955904;-3,8758507034516434;3,8758507034516434
11:53:54.129;0;Mov;1;10515;10,11;0;0;0;-0,35650503817674795;-0,08852809377813425;0,0119632557145909;3,936887722403638;-2,6551103244117558;3,9063692129276406
11:53:54.137;0;Wrist;1;56870;9,83;0;0;0;0,07417218990094836;-0,16987822816686757;0,12441786092190694;-5,951109347819452;-12,207403790398876;0,27466658528397475
11:53:54.137;0;Wrist;1;56871;9,83;0;0;0;0,1339884610230949;-0,1064729773500206;0,14236275194460127;-5,1576281014435255;-11,597033600878934;-0,18311105685598317
11:53:54.137;0;Wrist;1;56872;9,83;0;0;0;-0,009570604757942918;-0,12441786092190694;0,16868191153637807;-3,2654805139316996;-9,643848994415112;-0,7019257179479355
11:53:54.137;0;Wrist;1;56873;9,83;0;0;0;-0,3852168459311197;-0,13279214439260537;0,23208716980403302;-2,3194067201757864;-8,941923276467177;-0,9765923032319102
11:53:54.137;0;Wrist;1;56874;9,83;0;0;0;-0,49886777521973324;-0,19978636745334483;0,24285409398651844;-2,685628833887753;-11,291848506118962;-0,4882961516159551
11:53:54.162;0;Mov;1;10516;9,86;0;-0,6125187045083468;0;-0,6125187045083468;-0,10168767357402264;0,16509293184167761;3,2654805139316996;-2,380443739127781;3,7537766655476545
11:53:54.162;0;Mov;1;10517;9,86;0;-0,6986541575746941;0;-0,6986541575746941;-0,06819056204365291;0,1818414838814585;3,357036042359691;-4,1810357982116155;3,2349620044557024
11:53:54.162;0;Mov;1;10518;9,86;0;-0,6723349830813014;0;-0,6723349830813014;-0,08015381775824382;0,17346720786156805;3,021332438123722;-5,859553819391461;2,6245918149357585
11:53:54.162;0;Mov;1;10519;9,86;0;-0,5024567400128178;0;-0,5024567400128178;-0,08972441785943175;0,08852809377813425;2,6245918149357585;-6,988738670003357;1,8616290780358287
11:53:54.162;0;Mov;1;10520;9,86;0;0;0;-0,3864131774632252;-0,05383465071565905;0,0598162785729545;1,7090365306558428;-6,836146122623371;0,9765923032319102
11:53:54.196;0;Wrist;1;56875;9,97;0;0;0;-0,29309976500747703;-0,22849819010933256;0,19260842296555986;-3,021332438123722;-13,428144169438765;0,7019257179479355
11:53:54.196;0;Wrist;1;56876;9,97;0;0;0;-0,06819056204365291;-0,19739371929074984;0,10288399765532014;-2,6245918149357585;-13,763847773674733;1,6174810022278512
11:53:54.196;0;Wrist;1;56877;9,97;0;0;0;-0,02273018548518231;-0,14236275194460127;0,04546037097036462;-1,9531846064638203;-11,749626148258919;2,1362956633198036
11:53:54.196;0;Wrist;1;56878;9,97;0;0;0;-0,03708609495047418;-0,10408032918742562;0,05503097852236053;-1,5259254737998595;-9,521774956511123;2,71614734336375
11:53:54.196;0;Wrist;1;56879;9,97;0;0;0;-0,2799401777607807;-0,0837427900021363;0,21174962316793572;-1,4648884548478653;-8,972441785943175;2,9297769096957307
11:53:54.219;0;Mov;1;10521;9,97;0;0;0;-0,3923948053205206;-0,0358897671437727;0,0346934430624752;0,8545182653279214;-6,469924008911405;0
11:53:54.219;0;Mov;1;10522;9,97;0;0;0;-0,48929718256935334;-0,0346934430624752;0,11604358490201651;-0,12207403790398877;-6,19525742362743;-1,0681478316599018
11:53:54.219;0;Mov;1;10523;9,97;0;-0,6555864012382885;0;-0,6555864012382885;0,003588976900647469;0,20217903051755579;-0,5798516800439466;-7,17184972685934;-1,6479995117038484
11:53:54.219;0;Mov;1;10524;9,97;0;-0,6424268437948241;0;-0,6424268437948241;-0,03230079117447623;0,236872466129223;-0,7629627368999298;-9,552293465987121;-1,3122959074678793
11:53:54.219;0;Mov;1;10525;9,97;0;-0,6292672863513596;0;-0,6292672863513596;-0,0011963255947428648;0,22849819010933256;-1,8005920590838342;-12,054811243018891;-2,197332682271798
11:53:54.227;0;Wrist;1;56880;9,73;0;0;0;-0,48929718256935334;-0,11365092928861355;0,3421491193979461;-2,2278511917477952;-12,81777397991882;3,357036042359691
11:53:54.227;0;Wrist;1;56881;9,73;0;0;0;-0,4964751121555223;-0,18064516725096896;0,3098483170472579;-3,3875545518356884;-19,379253517258217;4,4557023834955904
11:53:54.227;0;Wrist;1;56882;9,73;0;0;0;-0,32420423582605973;-0,16030763551648763;0,234479817966628;-4,150517288735618;-24,35377056184576;6,40888698995941
11:53:54.227;0;Wrist;1;56883;9,73;0;0;0;-0,20457167868015075;-0,16030763551648763;0,20816065837485123;-3,662221137119663;-25,87969603564562;9,002960295419172
11:53:54.227;0;Wrist;1;56884;9,73;0;0;0;-0,17585985602416304;-0,11365092928861355;0,3708609271523179;-2,2583697012237924;-26,39851069673757;10,071108127079073
11:53:54.279;0;Mov;1;10526;10,09;0;-0,6268746232871486;0;-0,6268746232871486;-0,13997008888039034;0,23328348643452254;-3,051850947599719;-14,55732902005066;-2,380443739127781
11:53:54.279;0;Mov;1;10527;10,09;0;-0,5467207980780968;0;-0,5467207980780968;-0,27635121296769616;0,23328348643452254;-4,333628345591602;-18,097476119266336;-2,3499252296517836
11:53:54.279;0;Mov;1;10528;10,09;0;-0,5012604382839442;0;-0,5012604382839442;-0,2799401777607807;0,03349711525577372;-4,821924497207556;-21,63762321848201;-2,6245918149357585
11:53:54.279;0;Mov;1;10529;10,09;0;-0,581414263492996;0;-0,581414263492996;-0,32300790429395426;0,1292031646979049;-5,371257667775506;-23,8959929197058;-2,8687398907437363
11:53:54.279;0;Mov;1;10530;10,09;0;0;0;-0,3337748284764397;-0,0717795342875454;-0,003588976900647469;-5,066072573015534;-27,649769585253456;-3,5096285897396773
11:53:54.287;0;Wrist;1;56885;9,86;0;0;0;0,07417218990094836;-0,01794488357188635;-0,119632557145909;0,6103701895199438;-26,97836237678152;10,711996826075014
11:53:54.287;0;Wrist;1;56886;9,86;0;0;0;0,2823328408249916;-0,18543046357615894;-0,2273018585772271;1,403851435895871;-23,8959929197058;10,803552354503006
11:53:54.287;0;Wrist;1;56887;9,86;0;0,6819055757316813;-0,651997436445204;0,6819055757316813;-0,16628926337378308;-0,651997436445204;1,0681478316599018;-18,58577227088229;9,857478560747094
11:53:54.287;0;Wrist;1;56888;9,86;0;0,940311934930723;-0,8326426334994049;0,940311934930723;-0,19500107112815485;-0,8326426334994049;0;-9,369182409131138;8,02636799218726
11:53:54.287;0;Wrist;1;56889;9,86;0;0,7393291912404248;-0,5897884948080385;0,7393291912404248;-0,20935697500534073;-0,5897884948080385;-1,5564439832758568;0,15259254737998595;5,340739158299509
11:53:54.309;0;Mov;1;10531;9,85;0;0;0;-0,4390514966467788;-0,13638112408730582;0,239265114291818;-4,8829615161595505;-30,030213324381236;-3,4180730613116856
11:53:54.309;0;Mov;1;10532;9,85;0;-0,7154026798112431;0;-0,7154026798112431;-0,3146336431756798;0,32061527103297527;-6,042664876247444;-33,35673085726493;-2,3194067201757864
11:53:54.309;0;Mov;1;10533;9,85;0;-0,5383465071565905;0;-0,5383465071565905;-0,18543046357615894;0,3086520153183844;-6,927701651051363;-39,67406231879635;-2,075258644367809
11:53:54.309;0;Mov;1;10534;9,85;0;0;0;-0,31104464857936337;-0,05503097852236053;-0,2859218056180761;-6,0121463667714465;-46,998504593035676;-2,9908139286477247
11:53:54.309;0;Mov;1;10535;9,85;0;0;0;-0,08613544561553926;0,16509293184167761;-0,3828241828669088;-4,24207281716361;-49,31791131321146;-3,8758507034516434
11:53:54.369;0;Mov;1;10536;9,97;0;0;0;-0,29190343347537157;0,028711815205179753;0,13039949623001038;-3,7232581560716573;-47,853022858363595;-3,448591570787683
11:53:54.369;0;Mov;1;10537;9,97;0;0;0;-0,37564622347750787;-0,09929502541142765;0,2799401777607807;-4,364146855067599;-52,613910336619156;-2,4719992675557725
11:53:54.369;0;Mov;1;10538;9,97;0;-0,654390099509415;0;-0,654390099509415;0,03947874311306917;0,3553087066446425;-5,584887234107486;-63,32590716269417;-3,7842951750236518
11:53:54.369;0;Mov;1;10539;9,97;0,6292672863513596;-0,5048494030770287;0;-0,5048494030770287;0,6292672863513596;-0,234479817966628;-7,080294198431349;-70,34516434217353;-6,714072084719382
11:53:54.369;0;Mov;1;10540;9,97;0,7907712384983367;0;0;0,1674855800042726;0,7907712384983367;-0,49168981583033233;-4,516739402447585;-65,61479537339396;-7,5685903500473035
11:53:54.429;0;Mov;1;10541;10,08;0;-0,9331339457380902;1,381756035035249;-0,9331339457380902;-0,4773339268547624;1,381756035035249;-3,8758507034516434;-56,18457594531083;-3,1434064760277107
11:53:54.429;0;Mov;1;10542;10,08;-0,6723349830813014;-1,8794275681325725;2,8891262550737022;-1,8794275681325725;-0,6723349830813014;2,8891262550737022;-6,561479537339396;-66,16412854396191;4,7303689687795645
11:53:54.429;0;Mov;1;10543;10,08;0,7297585985900449;-1,8279855208746605;2,2239693803979614;-1,8279855208746605;0,7297585985900449;2,2239693803979614;-4,577776421399578;-85,23819696646015;6,103701895199438
11:53:54.429;0;Mov;1;10544;10,08;3,5064303453169345;-1,6222174510559404;1,3889339646214178;-1,6222174510559404;3,5064303453169345;1,3889339646214178;-0,18311105685598317;-86,03167821283608;13,824884792626728
11:53:54.429;0;Mov;1;10545;10,08;4,034010017700735;0;2,100747798852504;0,40794702582819603;4,034010017700735;2,100747798852504;4,852443006683553;-82,82723471785638;30,793176061281166
11:53:54.458;0;Wrist;1;56890;11,22;0;0;0;0,2512283700064089;-0,17107455969897306;0,2153386028626362;-1,8005920590838342;6,775109103671377;2,9602954191717274
11:53:54.458;0;Wrist;1;56891;11,22;0;-0,7728263549264504;1,0527665028839992;-0,7728263549264504;0,22012391408944212;1,0527665028839992;1,3122959074678793;6,927701651051363;0,5798516800439466
11:53:54.458;0;Wrist;1;56892;11,22;0;-0,7034394240966522;0;-0,7034394240966522;-0,2153386028626362;0,013159581658590389;4,1810357982116155;-2,5025177770317697;2,6245918149357585
11:53:54.458;0;Wrist;1;56893;11,22;0;0;0;-0,3947874385814997;-0,19978636745334483;0,1315958128604999;3,357036042359691;-7,232886745811334;4,608294930875576
11:53:54.458;0;Wrist;1;56894;11,22;0;0;0;0,16868191153637807;-0,4378551651146733;-0,297885061332667;2,4414807580797753;-11,62755211035493;6,0121463667714465
11:53:54.459;0;Mov;1;10546;9,88;-4,04956205938902;0;0,6531937977805414;-0,1411664204124958;-4,04956205938902;0,6531937977805414;4,760887478255562;-65,76738792077396;19,287697988830224
11:53:54.459;0;Mov;1;10547;9,88;-5,894296281319621;0;-4,01606513412885;0,3361674915406507;-5,894296281319621;-4,01606513412885;10,956144901882992;-61,49479659413434;3,295999023407697
11:53:54.459;0;Mov;1;10548;9,88;-2,8436658356730855;1,4128604760505996;-3,9060029908139287;1,4128604760505996;-2,8436658356730855;-3,9060029908139287;14,282662434766687;-49,83672597430341;-6,714072084719382
11:53:54.459;0;Mov;1;10549;9,88;1,1819697122867519;1,022858363597522;-2,7288187238685264;1,022858363597522;1,1819697122867519;-2,7288187238685264;13,336588641010772;-35,98132267220069;-10,101626636555071
11:53:54.459;0;Mov;1;10550;9,88;3,056611835077975;0;-2,410596026490066;0,4952788104266488;3,056611835077975;-2,410596026490066;12,451551866206854;-24,47584459974975;-5,523850215155492
11:53:54.467;0;Wrist;1;56895;10,73;-0,835035236957152;0;0;0,3421491193979461;-0,835035236957152;-0,1315958128604999;2,4719992675557725;-11,108737449262978;6,317331461531419
11:53:54.467;0;Wrist;1;56896;10,73;-0,8410168648144475;0;0;0,290707131746498;-0,8410168648144475;-0,35291604358043155;2,5940733054597613;-8,758812219611194;6,134220404675435
11:53:54.467;0;Wrist;1;56897;10,73;-0,5993591470648824;0,661568029095584;-0,5550950889996032;0,661568029095584;-0,5993591470648824;-0,5550950889996032;1,1597033600878932;-5,005035554063539;6,042664876247444
11:53:54.467;0;Wrist;1;56898;10,73;0;0;0;0,3098483170472579;-0,11125828112601856;-0,10408032918742562;0,8545182653279214;1,2512588885158848;4,516739402447585
11:53:54.467;0;Wrist;1;56899;10,73;0;0;0;-0,44024782817888425;0,18543046357615894;0,16868191153637807;2,2278511917477952;3,2349620044557024;2,380443739127781
11:53:54.470;0;Wrist;1;56900;10,22;0;0;0;-0,3086520153183844;0,06460158234895245;0,00837427881394343;1,281777397991882;-1,4954069643238623;2,5025177770317697
11:53:54.470;0;Wrist;1;56901;10,22;0;0;0;0,2488357218438139;0,11006195704472106;-0,2895108002143925;-0,7324442274239327;-4,058961760307627;2,7466658528397474
11:53:54.471;0;Wrist;1;56902;10,22;0;0;0;0,20217903051755579;0,00837427881394343;0,16987822816686757;-1,5564439832758568;-1,6174810022278512;0,9155552842799157
11:53:54.471;0;Wrist;1;56903;10,22;0;-0,6699423200170904;0,8589617483863338;-0,6699423200170904;0;0,8589617483863338;1,0071108127079074;0;-1,0681478316599018
11:53:54.471;0;Wrist;1;56904;10,22;0;-0,9546678537095248;0,5622730185857723;-0,9546678537095248;0,013159581658590389;0,5622730185857723;3,5096285897396773;-6,927701651051363;-0,09155552842799158
11:53:54.496;0;Wrist;1;56905;9,98;0;0;0;-0,30027772439687794;-0,3505234103194525;0,19500107112815485;4,1810357982116155;-14,923551133762627;2,9908139286477247
11:53:54.496;0;Wrist;1;56906;9,98;0;0;0;0,3780388865417188;-0,44503312450407423;-0,30386668918996246;5,21866512039552;-16,17481002227851;3,9979247413556322
11:53:54.497;0;Wrist;1;56907;9,98;0;0,5706473095072787;-0,5802179021576587;0,5706473095072787;-0,44024782817888425;-0,5802179021576587;5,035554063539537;-11,749626148258919;3,6317026276436657
11:53:54.497;0;Wrist;1;56908;9,98;-0,5072420661412397;0,6125187045083468;-0,6472121699232459;0,6125187045083468;-0,5072420661412397;-0,6472121699232459;3,1434064760277107;-5,7374797814874725;2,9602954191717274
11:53:54.497;0;Wrist;1;56909;9,98;-0,5263832514419996;0,6902798666531876;-0,5263832514419996;0,6902798666531876;-0,5263832514419996;-0,5263832514419996;0,3967406231879635;1,2207403790398876;2,0142216254158147
11:53:54.519;0;Mov;1;10551;9,98;2,0265756611072114;0;-1,7538132639164403;0,4845118564409314;2,0265756611072114;-1,7538132639164403;9,979552598651082;-14,099551377910704;0,8545182653279214
11:53:54.519;0;Mov;1;10552;9,98;0;0;-0,7249733320680868;0,14475540010719626;-0,0837427900021363;-0,7249733320680868;4,150517288735618;-6,95822016052736;4,1810357982116155
11:53:54.519;0;Mov;1;10553;9,98;-0,7871822140987884;0;-0,5096347292054506;-0,21773125102523117;-0,7871822140987884;-0,5096347292054506;0,18311105685598317;-5,21866512039552;2,8992584002197335
11:53:54.519;0;Mov;1;10554;9,98;0;0;-0,9929502243110446;-0,040675070919770656;0,22012391408944212;-0,9929502243110446;-1,1597033600878932;-3,814813684499649;0,4882961516159551
11:53:54.519;0;Mov;1;10555;9,98;1,1400983172856838;0;-0,7321512616542558;0,13279214439260537;1,1400983172856838;-0,7321512616542558;-2,1057771538438064;-0,7324442274239327;1,4954069643238623
11:53:54.526;0;Wrist;1;56910;9,81;0;0;0;0,236872466129223;-0,26199529418889433;-0,0945097216354297;0,18311105685598317;7,812738425855281;0,18311105685598317
11:53:54.527;0;Wrist;1;56911;9,81;0;0;0;-0,13757744071779535;-0,2631916257209998;-0,04426404688906713;1,1597033600878932;9,430219428083133;-0,21362956633198035
11:53:54.527;0;Wrist;1;56912;9,81;0;0;0;-0,1770561875562685;-0,3935911070493942;0,24524674214911343;1,2207403790398876;8,911404766991181;0,640888698995941
11:53:54.527;0;Wrist;1;56913;9,81;0;-0,7453108190977202;0,9104037956442458;-0,7453108190977202;-0,12561418500320445;0,9104037956442458;2,9297769096957307;7,629627368999298;0,8545182653279214
11:53:54.527;0;Wrist;1;56914;9,81;0;-0,783593249305704;0,6926725297173986;-0,783593249305704;-0,22371287888252664;0,6926725297173986;5,584887234107486;0,3967406231879635;2,075258644367809
11:53:54.579;0;Mov;1;10556;10,07;0,769237330526902;0;0;-0,10049134949272515;0,769237330526902;-0,43546250205046233;-3,936887722403638;1,922666096987823;4,486220892971588
11:53:54.579;0;Mov;1;10557;10,07;0;0;-0,7955565050202948;-0,16030763551648763;-0,1184362330646115;-0,7955565050202948;-6,836146122623371;5,127109591967528;6,19525742362743
11:53:54.579;0;Mov;1;10558;10,07;-0,710617413289285;0;-0,6651570534951323;-0,014355907602589877;-0,710617413289285;-0,6651570534951323;-9,857478560747094;9,094515823847164;5,371257667775506
11:53:54.579;0;Mov;1;10559;10,07;-0,6723349830813014;0;0;-0,22251656225203711;-0,6723349830813014;-0,1543260076591922;-10,834070863979003;11,902218695638904;3,2349620044557024
11:53:54.579;0;Mov;1;10560;10,07;0;0;-0,7333475633831293;-0,1674855800042726;-0,19021577480296487;-0,7333475633831293;-9,552293465987121;14,221625415814692;1,922666096987823
11:53:54.588;0;Wrist;1;56915;9,91;0;0;0;-0,2488357218438139;-0,36009400296983246;0,33257852674756616;6,988738670003357;-5,890072328867458;4,058961760307627
11:53:54.588;0;Wrist;1;56916;9,91;0;0;0;0,09690236979802469;-0,1292031646979049;-0,12322153684060945;7,38547929319132;-7,446516312143315;5,340739158299509
11:53:54.588;0;Wrist;1;56917;9,91;0;0;0;0,1914120914334544;-0,00598162785729545;-0,2273018585772271;6,561479537339396;-6,2868129520554215;5,21866512039552
11:53:54.588;0;Wrist;1;56918;9,91;0;0;0;0,14714804826979125;0,0358897671437727;-0,17346720786156805;5,371257667775506;-4,516739402447585;4,4557023834955904
11:53:54.589;0;Wrist;1;56919;9,91;0;0;0;0,18064516725096896;0,09211707347283471;-0,27635121296769616;3,69273964659566;-3,1434064760277107;3,5401470992156745
11:53:54.639;0;Mov;1;10561;10,15;0;0;-0,7800042845126194;0,01674855762788686;-0,10408032918742562;-0,7800042845126194;-8,209479049043244;17,670216986602373;1,4648884548478653
11:53:54.639;0;Mov;1;10562;10,15;-0,522794286648915;0;0;-0,3062593522541734;-0,522794286648915;0,4306772057252724;-0,8850367748039186;22,94991912594989;0,3967406231879635
11:53:54.639;0;Mov;1;10563;10,15;-1,0264473879970701;0;0;-0,43187353725737787;-1,0264473879970701;-0,1794488357188635;4,974517044587542;24,811548203985716;-0,9765923032319102
11:53:54.639;0;Mov;1;10564;10,15;-0,6974577962393567;0;-1,3530441974776453;0,22969452164143803;-0,6974577962393567;-1,3530441974776453;9,613330484939116;26,85628833887753;-3,936887722403638
11:53:54.639;0;Mov;1;10565;10,15;0;0;-0,8218756795136876;0,39598377011360514;0,17346720786156805;-0,8218756795136876;12,26844080935087;35,21835993530076;-6,74459059419538
11:53:54.647;0;Wrist;1;56920;9,99;0;0;0;0,2895108002143925;0,12322153684060945;-0,34813074725524157;1,403851435895871;-1,8311105685598315;2,5025177770317697
11:53:54.647;0;Wrist;1;56921;9,99;0;0;0;0,2667806203173162;0,03708609495047418;-0,28472550388920254;-0,5188146610919523;0,45777764213995786;0,9460737937559129
11:53:54.647;0;Wrist;1;56922;9,99;0;0;0;0,12322153684060945;-0,16030763551648763;-0,0478530228583636;-1,7700735496078372;2,5025177770317697;-0,5188146610919523
11:53:54.647;0;Wrist;1;56923;9,99;0;0;0;0,00598162785729545;-0,12441786092190694;0,0239265114291818;-1,8005920590838342;3,69273964659566;-1,2207403790398876
11:53:54.647;0;Wrist;1;56924;9,99;0;0;0;-0,1507370279644917;-0,10288399765532014;0,17585985602416304;-1,5259254737998595;4,0284432508316295;-1,7700735496078372
11:53:54.670;0;Mov;1;10566;9,99;0,8709250041009247;0;0;-0,027515489261180266;0,8709250041009247;0,25720999786370435;8,301034577471237;48,829615161595505;-9,826960051271096
11:53:54.670;0;Mov;1;10567;9,99;0;-0,5527024259353923;0,5060457048059023;-0,5527024259353923;0;0,5060457048059023;-0,6103701895199438;48,738059633167516;-8,14844203009125
11:53:54.670;0;Mov;1;10568;9,99;-0,7800042845126194;-1,9727408911786248;3,335355740913114;-1,9727408911786248;-0,7800042845126194;3,335355740913114;-3,2349620044557024;45,07583849604785;-3,7232581560716573
11:53:54.670;0;Mov;1;10569;9,99;0;-1,0360179210409863;0,6496047733809931;-1,0360179210409863;0,2560136663315989;0,6496047733809931;-1,586962492751854;23,71288186284982;-4,821924497207556
11:53:54.670;0;Mov;1;10570;9,99;0,9092074343089084;0;0,5060457048059023;-0,3553087066446425;0,9092074343089084;0,5060457048059023;-6,347849971007416;18,4942167424543;-4,7303689687795645
11:53:54.676;0;Wrist;1;56925;9,83;0;0;0;-0,1435590685750908;-0,21414228623214668;0,1387737722499008;-0,8850367748039186;2,9602954191717274;-1,922666096987823
11:53:54.677;0;Wrist;1;56926;9,83;0;0;0;-0,0598162785729545;-0,1866267951082644;0,0119632557145909;-0,5188146610919523;2,288888210699789;-1,586962492751854
11:53:54.677;0;Wrist;1;56927;9,83;0;0;0;0,04904935066506508;-0,052638326634361556;-0,17466353939367352;-1,2512588885158848;2,288888210699789;-1,1291848506118962
11:53:54.677;0;Wrist;1;56928;9,83;0;0;0;0,07776116214484084;-0,1914120914334544;-0,03349711525577372;-1,922666096987823;3,1128879665517135;-1,2207403790398876
11:53:54.677;0;Wrist;1;56929;9,83;0;0;0;-0,09929502541142765;-0,1818414838814585;0,1961974026602603;-1,8005920590838342;4,0284432508316295;-1,5564439832758568
11:53:54.700;0;Mov;1;10571;9,83;0;-0,8505875170712912;1,0683187829981384;-0,8505875170712912;0,020337535459885328;1,0683187829981384;-9,521774956511123;17,60917996765038;-1,3733329264198737
11:53:54.700;0;Mov;1;10572;9,83;0;-0,9510788293099764;0,7237769707327494;-0,9510788293099764;-0,00598162785729545;0,7237769707327494;-7,782219916379284;8,972441785943175;-0,9155552842799157
11:53:54.700;0;Mov;1;10573;9,83;0;0;0;-0,46297800807596057;0,4976714436876278;0,4019653979709006;-6,653035065767388;1,4954069643238623;-1,8311105685598315
11:53:54.700;0;Mov;1;10574;9,83;0;0;0;-0,0933133975541322;0,14236275194460127;-0,2631916257209998;-7,72118289742729;-0,9155552842799157;-1,9531846064638203
11:53:54.701;0;Mov;1;10575;9,83;0;0;0;-0,15791497245227668;-0,1794488357188635;-0,19978636745334483;-7,5685903500473035;1,3428144169438765;-2,2278511917477952
11:53:54.736;0;Wrist;1;56930;9,91;0;0;0;-0,23806879766132846;-0,22849819010933256;0,23208716980403302;-0,9155552842799157;3,021332438123722;-1,403851435895871
11:53:54.736;0;Wrist;1;56931;9,91;0;0;0;-0,1315958128604999;-0,27276224817461164;0,17107455969897306;-0,4882961516159551;1,281777397991882;-0,5493331705679495
11:53:54.736;0;Wrist;1;56932;9,91;0;0;0;0;-0,22132023071993165;0,03230079117447623;-0,21362956633198035;0,7324442274239327;0
11:53:54.736;0;Wrist;1;56933;9,91;0;0;0;-0,026319163317180778;-0,17466353939367352;0,04546037097036462;-0,18311105685598317;1,0071108127079074;-0,15259254737998595
11:53:54.736;0;Wrist;1;56934;9,91;0;0;0;-0,1292031646979049;-0,1315958128604999;0,1387737722499008;0,3357036042359691;1,0071108127079074;-0,3357036042359691
11:53:54.762;0;Mov;1;10576;9,93;0;0;0;-0,22132023071993165;-0,014355907602589877;-0,2440504255186239;-5,920590838343455;3,3875545518356884;-2,410962248603778
11:53:54.763;0;Mov;1;10577;9,93;0;0;0;-0,3947874385814997;-0,18423414694566942;0,17825251908837397;-4,577776421399578;5,1576281014435255;-2,4719992675557725
11:53:54.763;0;Mov;1;10578;9,93;0;-0,9211706900234993;0,9439008997238075;-0,9211706900234993;-0,3947874385814997;0,9439008997238075;-5,3102206488235115;4,24207281716361;-1,3733329264198737
11:53:54.763;0;Mov;1;10579;9,93;0;-0,8924589120723594;0,7165990411465804;-0,8924589120723594;-0,19739371929074984;0,7165990411465804;-6,134220404675435;-3,448591570787683;-0,12207403790398877
11:53:54.763;0;Mov;1;10580;9,93;0;0;0;-0,16987822816686757;0,17825251908837397;-0,2009826989854503;-5,7374797814874725;-10,040589617603077;-0,061037018951994385
11:53:54.800;0;Wrist;1;56935;10,01;0;0;0;-0,10527665326872311;-0,18543046357615894;0,12441786092190694;0,9460737937559129;0,030518509475997192;-0,4272591326639607
11:53:54.800;0;Wrist;1;56936;10,01;0;0;0;-0,12800683316579944;-0,0837427900021363;0,20337534714804528;1,6785180211798456;-0,9155552842799157;-0,5798516800439466
11:53:54.800;0;Wrist;1;56937;10,01;0;0;0;-0,07656483806354335;-0,11484726082071901;0,01794488357188635;2,288888210699789;-2,1057771538438064;-0,640888698995941
11:53:54.800;0;Wrist;1;56938;10,01;0;0;0;0,003588976900647469;-0,16868191153637807;0,021533861403884816;1,8616290780358287;-2,533036286507767;-0,5798516800439466
11:53:54.800;0;Wrist;1;56939;10,01;0;0;0;0,0011963255947428648;-0,13279214439260537;-0,004785302378971459;1,7090365306558428;-2,4414807580797753;-0,7019257179479355
11:53:54.822;0;Mov;1;10581;10,02;0;0;0;-0,03708609495047418;-0,11484726082071901;-0,29549242807168796;-5,859553819391461;-8,087405011139255;0,24414807580797754
11:53:54.822;0;Mov;1;10582;10,02;0;0;0;-0,18423414694566942;-0,3265968988902707;-0,3265968988902707;-4,8829615161595505;-5,249183629871517;0,5188146610919523
11:53:54.822;0;Mov;1;10583;10,02;0;0;0;-0,05503097852236053;-0,08493911408343378;-0,44862208929715874;-3,173924985503708;-3,051850947599719;0,21362956633198035
11:53:54.823;0;Mov;1;10584;10,02;0;0;0;-0,003588976900647469;-0,07417218990094836;-0,48211922317995237;-2,197332682271798;0,7019257179479355;0
11:53:54.824;0;Mov;1;10585;10,02;0;0;0;-0,119632557145909;-0,19978636745334483;-0,39119847378841516;-1,1902218695638904;4,211554307687613;-0,061037018951994385
11:53:54.827;0;Wrist;1;56940;9,84;0;0;0;-0,03349711525577372;-0,17466353939367352;-0,007177953801294938;1,4954069643238623;-2,0142216254158147;-0,7324442274239327
11:53:54.827;0;Wrist;1;56941;9,84;0;0;0;-0,013159581658590389;-0,20337534714804528;-0,00837427881394343;1,281777397991882;-2,166814172795801;-0,6103701895199438
11:53:54.827;0;Wrist;1;56942;9,84;0;0;0;0,020337535459885328;-0,19021577480296487;-0,0693868861249504;0,8545182653279214;-1,8921475875118259;-0,7019257179479355
11:53:54.827;0;Wrist;1;56943;9,84;0;0;0;0,11006195704472106;-0,22132023071993165;-0,17466353939367352;0,3357036042359691;-0,8545182653279214;-0,5493331705679495
11:53:54.827;0;Wrist;1;56944;9,84;0;0;0;0,12681051653530992;-0,18782311173875393;-0,19380473959604938;-0,7324442274239327;0,6714072084719382;-0,7019257179479355
11:53:54.849;0;Mov;1;10586;9,84;0;0;-0,5060457048059023;-0,06340525826765496;-0,11006195704472106;-0,5060457048059023;0,3967406231879635;6,256294442579424;-0,24414807580797754
11:53:54.849;0;Mov;1;10587;9,84;0;0;0;0,04426404688906713;0,03349711525577372;-0,4342662003215888;1,7090365306558428;9,67436750389111;-0,5188146610919523
11:53:54.849;0;Mov;1;10588;9,84;0;0;0;-0,03947874311306917;0,0023926511894857296;-0,3780388865417188;3,295999023407697;14,465773491622668;-0,8239997558519242
11:53:54.849;0;Mov;1;10589;9,84;0;0;0;-0,07895748622613834;-0,03708609495047418;-0,23208716980403302;4,211554307687613;19,77599414044618;-1,4343699453718681
11:53:54.849;0;Mov;1;10590;9,84;0;0;0;-0,0705832102062479;-0,20696432684274574;-0,19380473959604938;2,197332682271798;23,346659749137853;-2,2278511917477952
11:53:54.886;0;Wrist;1;56945;9,91;0;0;0;0,08972441785943175;-0,1674855800042726;-0,12800683316579944;-1,5564439832758568;2,380443739127781;-0,9155552842799157
11:53:54.886;0;Wrist;1;56946;9,91;0;0;0;0,0358897671437727;-0,18782311173875393;-0,015552232615238368;-2,2278511917477952;3,8758507034516434;-0,9765923032319102
11:53:54.886;0;Wrist;1;56947;9,91;0;0;0;0;-0,12441786092190694;0,027515489261180266;-2,380443739127781;4,577776421399578;-1,2207403790398876
11:53:54.886;0;Wrist;1;56948;9,91;0;0;0;-0,09211707347283471;-0,1543260076591922;0,14834437980189671;-2,410962248603778;4,913480025635548;-1,2207403790398876
11:53:54.886;0;Wrist;1;56949;9,91;0;0;0;-0,11484726082071901;-0,1770561875562685;0,13279214439260537;-1,6785180211798456;4,211554307687613;-1,3122959074678793
11:53:54.909;0;Mov;1;10591;9,91;0;0;0;-0,4701559674653615;0,013159581658590389;0,25003203847430344;-1,8921475875118259;26,306955168309578;-3,814813684499649
11:53:54.909;0;Mov;1;10592;9,91;0;0;0;-0,4773339268547624;-0,10288399765532014;0,08852809377813425;0,5493331705679495;24,53688161870174;-1,3122959074678793
11:53:54.909;0;Mov;1;10593;9,91;0;0;0;-0,21174962316793572;-0,009570604757942918;-0,15552232428968168;1,1902218695638904;23,743400372325816;0,9155552842799157
11:53:54.909;0;Mov;1;10594;9,91;0;0;0;-0,31224098011146884;-0,10886562551261558;0,1064729773500206;1,9837031159398175;25,391399884029664;1,2512588885158848
11:53:54.909;0;Mov;1;10595;9,91;0;0;0;-0,38402051439901425;-0,04306772280776963;0,013159581658590389;1,9837031159398175;23,285622730185857;0,4882961516159551
11:53:54.950;0;Wrist;1;56950;10,01;0;0;0;-0,010766930701942408;-0,24046144582392345;0,028711815205179753;-1,1597033600878932;3,173924985503708;-1,1291848506118962
11:53:54.950;0;Wrist;1;56951;10,01;0;0;0;0,07417218990094836;-0,20337534714804528;-0,08733176969683676;-1,0376293221839046;3,5096285897396773;-1,0071108127079074
11:53:54.950;0;Wrist;1;56952;10,01;0;0;0;0,004785302378971459;-0,16150395214697713;-0,04904935066506508;-1,1291848506118962;4,516739402447585;-1,0376293221839046
11:53:54.950;0;Wrist;1;56953;10,01;0;0;0;-0,07776116214484084;-0,11125828112601856;-0,00837427881394343;-1,3733329264198737;4,638813440351573;-1,0681478316599018
11:53:54.950;0;Wrist;1;56954;10,01;0;0;0;0,0239265114291818;-0,15552232428968168;-0,0478530228583636;-1,6479995117038484;4,272591326639607;-0,9765923032319102
11:53:54.969;0;Mov;1;10596;9,99;0;0;0;-0,3146336431756798;-0,019141209515885837;-0,009570604757942918;2,197332682271798;22,553178502761924;0,3357036042359691
11:53:54.969;0;Mov;1;10597;9,99;0;0;0;-0,25720999786370435;-0,0717795342875454;-0,08493911408343378;2,71614734336375;21,668141727958005;0,3051850947599719
11:53:54.969;0;Mov;1;10598;9,99;0;0;0;-0,297885061332667;-0,0933133975541322;0;2,5025177770317697;22,186956389049957;0,27466658528397475
11:53:54.969;0;Mov;1;10599;9,99;0;0;0;-0,3421491193979461;0,015552232615238368;0,06460158234895245;1,8311105685598315;21,790215765861994;-0,12207403790398877
11:53:54.969;0;Mov;1;10600;9,99;0;0;0;-0,3385601546048616;0,0466566987770661;0,015552232615238368;1,8005920590838342;20,905178991058076;-0,21362956633198035
11:53:54.977;0;Wrist;1;56955;9,86;0;0;0;0,04306772280776963;-0,17227089123107853;-0,06460158234895245;-2,197332682271798;5,005035554063539;-0,9155552842799157
11:53:54.977;0;Wrist;1;56956;9,86;0;0;0;0,04904935066506508;-0,11365092928861355;-0,07776116214484084;-2,410962248603778;5,859553819391461;-1,0376293221839046
11:53:54.977;0;Wrist;1;56957;9,86;0;0;0;-0,0011963255947428648;-0,119632557145909;0,020337535459885328;-2,1362956633198036;6,225775933103427;-1,281777397991882
11:53:54.977;0;Wrist;1;56958;9,86;0;0;0;-0,1387737722499008;-0,2249092104146321;0,21653493439474167;-1,8616290780358287;6,40888698995941;-1,73955504013184
11:53:54.977;0;Wrist;1;56959;9,86;0;0;0;-0,2679769220461898;-0,2440504255186239;0,2859218056180761;-1,2207403790398876;5,21866512039552;-1,6785180211798456
11:53:55.028;0;Mov;1;10601;10,04;0;0;0;-0,43665883358256785;-0,08254646592083881;0,117239908983314;1,73955504013184;20,29480880153813;-0,030518509475997192
11:53:55.028;0;Mov;1;10602;10,04;0;-0,8458021909428693;0;-0,8458021909428693;-0,119632557145909;0,40675069429609056;0,9460737937559129;18,82992034669027;0,3357036042359691
11:53:55.028;0;Mov;1;10603;10,04;0;-0,6113224027794733;0;-0,6113224027794733;-0,16389660030957212;0,46417433960806603;-0,640888698995941;13,183996093630787;2,71614734336375
11:53:55.028;0;Mov;1;10604;10,04;0;0;0;-0,44383679297196876;-0,028711815205179753;0,1794488357188635;0,8239997558519242;8,636738181707205;0,030518509475997192
11:53:55.028;0;Mov;1;10605;10,04;0;0;0;-0,28831446868228705;-0,007177953801294938;-0,05503097852236053;0,5493331705679495;4,821924497207556;-0,5493331705679495
11:53:55.037;0;Wrist;1;56960;9,93;0;0;0;-0,23208716980403302;-0,23567614949873347;0,26199529418889433;-0,18311105685598317;2,9908139286477247;-1,0376293221839046
11:53:55.037;0;Wrist;1;56961;9,93;0;0;0;-0,0598162785729545;-0,11125828112601856;0,007177953801294938;0,3051850947599719;1,4343699453718681;-0,4882961516159551
11:53:55.037;0;Wrist;1;56962;9,93;0;0;0;0,025122837373181287;-0,11604358490201651;-0,05503097852236053;0,3051850947599719;1,1597033600878932;-0,5798516800439466
11:53:55.037;0;Wrist;1;56963;9,93;0;0;0;-0,04426404688906713;-0,15193334459498123;0,07536851398224585;0,18311105685598317;1,6785180211798456;-0,6714072084719382
11:53:55.037;0;Wrist;1;56964;9,93;0;0;0;-0,15552232428968168;-0,12322153684060945;0,16150395214697713;0,3967406231879635;1,4954069643238623;-0,8239997558519242
11:53:55.059;0;Mov;1;10606;9,92;0;0;0;-0,2596026609279153;-0,02273018548518231;-0,05024567474636257;0,3967406231879635;4,8829615161595505;-0,12207403790398877
11:53:55.059;0;Mov;1;10607;9,92;0;0;0;-0,37684255500961333;-0,020337535459885328;0,04904935066506508;0,3967406231879635;5,1576281014435255;-0,061037018951994385
11:53:55.059;0;Mov;1;10608;9,92;0;-0,5096347292054506;0;-0,5096347292054506;-0,03708609495047418;0,21773125102523117;0;4,4557023834955904;-0,18311105685598317
11:53:55.059;0;Mov;1;10609;9,92;0;0;0;-0,4474257577650533;-0,0346934430624752;0,11365092928861355;-0,640888698995941;2,2583697012237924;-0,3967406231879635
11:53:55.059;0;Mov;1;10610;9,92;0;0;0;-0,24046144582392345;0;-0,11604358490201651;-0,8239997558519242;0,5188146610919523;-0,6103701895199438
11:53:55.119;0;Mov;1;10611;9,99;0;0;0;-0,2548173646027253;-0,025122837373181287;-0,09929502541142765;-0,793481246375927;1,0376293221839046;-0,7324442274239327
11:53:55.119;0;Mov;1;10612;9,99;0;0;0;-0,3062593522541734;-0,01794488357188635;-0,05144199882766007;-0,7324442274239327;1,3428144169438765;-0,8239997558519242
11:53:55.120;0;Mov;1;10613;9,99;0;0;0;-0,2524247015385144;-0,08015381775824382;-0,22012391408944212;0,12207403790398877;3,4180730613116856;-1,7090365306558428
11:53:55.120;0;Mov;1;10614;9,99;0;0;0;-0,21773125102523117;0,056227302603658026;0,15791497245227668;0,09155552842799158;6,378368480483413;-2,2583697012237924
11:53:55.120;0;Mov;1;10615;9,99;0;0;0;-0,20935697500534073;-0,04546037097036462;-0,2153386028626362;-0,6714072084719382;2,6551103244117558;-0,9155552842799157
11:53:55.149;0;Mov;1;10616;9,87;0;0;0;-0,297885061332667;-0,07297585836884289;0,013159581658590389;-0,6103701895199438;3,7537766655476545;-1,0376293221839046
11:53:55.149;0;Mov;1;10617;9,87;0;0;0;-0,3050630207220679;-0,08015381775824382;-0,031104465230476736;-0,6103701895199438;3,662221137119663;-0,9765923032319102
11:53:55.149;0;Mov;1;10618;9,87;0;0;0;-0,22371287888252664;-0,058619954491657;-0,0957060457167272;-0,5188146610919523;3,448591570787683;-0,8850367748039186
11:53:55.149;0;Mov;1;10619;9,87;0;0;0;-0,28113650929288614;-0,05144199882766007;-0,0346934430624752;-0,21362956633198035;4,0284432508316295;-0,8239997558519242
11:53:55.149;0;Mov;1;10620;9,87;0;0;0;-0,3146336431756798;-0,09690236979802469;-0,031104465230476736;0;3,936887722403638;-0,7324442274239327
11:53:55.157;0;Wrist;1;56965;10,35;0;0;0;-0,07536851398224585;-0,13757744071779535;0,07417218990094836;0,6714072084719382;0,3967406231879635;-0,5493331705679495
11:53:55.157;0;Wrist;1;56966;10,35;0;0;0;-0,03947874311306917;-0,18543046357615894;0,07895748622613834;0,9155552842799157;0;-0,5188146610919523
11:53:55.157;0;Wrist;1;56967;10,35;0;0;0;-0,0346934430624752;-0,21414228623214668;0,027515489261180266;1,4343699453718681;-0,18311105685598317;-0,5798516800439466
11:53:55.157;0;Wrist;1;56968;10,35;0;0;0;0,025122837373181287;-0,20217903051755579;-0,03349711525577372;1,586962492751854;-0,12207403790398877;-0,15259254737998595
11:53:55.157;0;Wrist;1;56969;10,35;0;0;0;0,026319163317180778;-0,16628926337378308;-0,031104465230476736;1,4954069643238623;0,5188146610919523;-0,061037018951994385
11:53:55.158;0;Wrist;1;56970;10,06;0;0;0;0,004785302378971459;-0,1770561875562685;-0,014355907602589877;1,3733329264198737;1,2207403790398876;-0,15259254737998595
11:53:55.158;0;Wrist;1;56971;10,06;0;0;0;-0,03230079117447623;-0,15552232428968168;-0,019141209515885837;1,281777397991882;1,2207403790398876;-0,09155552842799158
11:53:55.158;0;Wrist;1;56972;10,06;0;0;0;-0,05024567474636257;-0,1543260076591922;0,014355907602589877;0,793481246375927;1,1291848506118962;-0,061037018951994385
11:53:55.158;0;Wrist;1;56973;10,06;0;0;0;-0,003588976900647469;-0,1543260076591922;-0,031104465230476736;0,5798516800439466;0,9460737937559129;0,030518509475997192
11:53:55.158;0;Wrist;1;56974;10,06;0;0;0;0,03947874311306917;-0,14475540010719626;-0,11006195704472106;0,36622211371196634;1,2207403790398876;0,061037018951994385
11:53:55.186;0;Wrist;1;56975;9,93;0;0;0;0,027515489261180266;-0,1387737722499008;-0,027515489261180266;-0,18311105685598317;1,9837031159398175;0,15259254737998595
11:53:55.186;0;Wrist;1;56976;9,93;0;0;0;-0,02990813928647725;-0,14595171673768578;0,031104465230476736;-0,3051850947599719;2,4414807580797753;-0,030518509475997192
11:53:55.186;0;Wrist;1;56977;9,93;0;0;0;-0,0239265114291818;-0,1387737722499008;0,01794488357188635;-0,3357036042359691;1,8616290780358287;-0,030518509475997192
11:53:55.186;0;Wrist;1;56978;9,93;0;0;0;-0,0346934430624752;-0,1339884610230949;0,01674855762788686;-0,4272591326639607;1,8311105685598315;0,030518509475997192
11:53:55.186;0;Wrist;1;56979;9,93;0;0;0;-0,1076693014313181;-0,19021577480296487;0,10168767357402264;-0,36622211371196634;1,5564439832758568;0
11:53:55.213;0;Mov;1;10621;9,96;0;0;0;-0,25003203847430344;0,00837427881394343;-0,0693868861249504;0,24414807580797754;3,357036042359691;-0,793481246375927
11:53:55.213;0;Mov;1;10622;9,96;0;0;0;-0,21892758255733666;0,0119632557145909;-0,05144199882766007;0,09155552842799158;3,845332193975646;-0,9765923032319102
11:53:55.213;0;Mov;1;10623;9,96;0;0;0;-0,19739371929074984;-0,0598162785729545;-0,12441786092190694;0;4,425183874019593;-1,0376293221839046
11:53:55.213;0;Mov;1;10624;9,96;0;0;0;-0,15671865582178715;0;-0,14834437980189671;0,15259254737998595;5,401776177251503;-1,1597033600878932
11:53:55.213;0;Mov;1;10625;9,96;0;0;0;-0,17346720786156805;-0,021533861403884816;-0,0933133975541322;-0,030518509475997192;6,836146122623371;-1,281777397991882
11:53:55.246;0;Wrist;1;56980;9,99;0;0;0;-0,12681051653530992;-0,2009826989854503;0,1507370279644917;0,09155552842799158;0,7629627368999298;0,15259254737998595
11:53:55.246;0;Wrist;1;56981;9,99;0;0;0;-0,07656483806354335;-0,1794488357188635;0,1435590685750908;0,5798516800439466;-0,09155552842799158;0,24414807580797754
11:53:55.246;0;Wrist;1;56982;9,99;0;0;0;-0,08613544561553926;-0,21773125102523117;0,14236275194460127;1,4648884548478653;-0,5798516800439466;0,3051850947599719
11:53:55.246;0;Wrist;1;56983;9,99;0;0;0;-0,13279214439260537;-0,17585985602416304;0,17227089123107853;2,2278511917477952;-1,0071108127079074;0,3967406231879635
11:53:55.246;0;Wrist;1;56984;9,99;0;0;0;-0,16030763551648763;-0,14714804826979125;0,1411664204124958;2,6551103244117558;-2,288888210699789;0,4882961516159551
11:53:55.270;0;Mov;1;10626;10;0;0;0;-0,2129459547000412;-0,04904935066506508;-0,06220893046095347;-0,09155552842799158;7,93481246375927;-1,1902218695638904
11:53:55.270;0;Mov;1;10627;10;0;0;0;-0,3505234103194525;-0,0346934430624752;0,0957060457167272;-0,24414807580797754;8,392590105899227;-0,8545182653279214
11:53:55.270;0;Mov;1;10628;10;0;0;0;-0,46776330440115055;-0,11006195704472106;0,20457167868015075;-0,3051850947599719;7,4159978026673175;-0,5798516800439466
11:53:55.270;0;Mov;1;10629;10;0;0;0;-0,45938904328287605;-0,14595171673768578;0,24285409398651844;-0,5188146610919523;4,913480025635548;-0,27466658528397475
11:53:55.272;0;Mov;1;10630;10;0;0;0;-0,4258919094000824;-0,12202521275931195;0,16628926337378308;-0,8545182653279214;2,71614734336375;-0,061037018951994385
11:53:55.305;0;Mov;1;10631;9,91;0;0;0;-0,4426404614398633;-0,0717795342875454;0,17227089123107853;-1,1902218695638904;1,1291848506118962;0,24414807580797754
11:53:55.305;0;Mov;1;10632;9,91;0;0;0;-0,29190343347537157;-0,06220893046095347;-0,03349711525577372;-1,2512588885158848;-0,5188146610919523;0,09155552842799158
11:53:55.306;0;Mov;1;10633;9,91;0;0;0;-0,22371287888252664;-0,07536851398224585;-0,0933133975541322;-0,7324442274239327;-0,6714072084719382;-0,18311105685598317
11:53:55.306;0;Mov;1;10634;9,91;0;0;0;-0,25003203847430344;-0,07895748622613834;-0,0705832102062479;-0,24414807580797754;-0,3967406231879635;-0,27466658528397475
11:53:55.306;0;Mov;1;10635;9,91;0;0;0;-0,34095278786584066;0,014355907602589877;-0,025122837373181287;0,27466658528397475;-0,3967406231879635;-0,21362956633198035
11:53:55.336;0;Wrist;1;56985;10,21;0;0;0;-0,23328348643452254;-0,1770561875562685;0,22610554194673757;2,8687398907437363;-4,211554307687613;0,640888698995941
11:53:55.336;0;Wrist;1;56986;10,21;0;0;0;-0,3553087066446425;-0,0837427900021363;0,33018586368335523;3,173924985503708;-7,110812707907346;1,0071108127079074
11:53:55.336;0;Wrist;1;56987;10,21;0;0;0;-0,44862208929715874;0;0,33736382307275614;3,0823694570757163;-11,688589129306925;1,4343699453718681
11:53:55.337;0;Wrist;1;56988;10,21;0;0;0;-0,4534073856223487;-0,0717795342875454;0,21892758255733666;2,5940733054597613;-17,822809533982362;2,685628833887753
11:53:55.337;0;Wrist;1;56989;10,21;0;0;0;-0,34454178246215705;0,02273018548518231;0,2488357218438139;1,6785180211798456;-24,23169652394177;4,0284432508316295
11:53:55.338;0;Wrist;1;56990;9,94;0;0;0;-0,49049348429822687;0,08493911408343378;0,31224098011146884;0,8850367748039186;-30,30487990966521;4,058961760307627
11:53:55.338;0;Wrist;1;56991;9,94;0;0;0;-0,38402051439901425;0,0693868861249504;0,26558428878521073;-0,18311105685598317;-37,56828516495254;4,089480269783624
11:53:55.338;0;Wrist;1;56992;9,94;0;0;0;0,08135014183954131;-0,08015381775824382;-0,16509293184167761;-1,8921475875118259;-42,17658009582812;3,6317026276436657
11:53:55.338;0;Wrist;1;56993;9,94;0;1,0862636665700247;-0,7285622968611714;1,0862636665700247;-0,09092074194072924;-0,7285622968611714;-4,058961760307627;-37,72087771233253;2,288888210699789
11:53:55.338;0;Wrist;1;56994;9,94;0;1,5695792212820825;-1,0874599682988983;1,5695792212820825;-0,0837427900021363;-1,0874599682988983;-4,150517288735618;-23,438215277565845;-1,586962492751854
11:53:55.363;0;Mov;1;10636;9,97;0;-0,6089297397152623;0;-0,6089297397152623;-0,01794488357188635;0,32300790429395426;0,21362956633198035;-0,8850367748039186;-0,3051850947599719
11:53:55.365;0;Mov;1;10637;9,97;0;-0,9391155735953856;0,8398205630855738;-0,9391155735953856;-0,12322153684060945;0,8398205630855738;-1,0071108127079074;-4,4557023834955904;-0,3967406231879635
11:53:55.365;0;Mov;1;10638;9,97;0;0;0;-0,3672719623592334;0,16987822816686757;-0,00598162785729545;-1,6174810022278512;-13,214514603106783;-1,0071108127079074
11:53:55.365;0;Mov;1;10639;9,97;0;0;0;-0,2560136663315989;0,19260842296555986;0,11245460520731605;-2,3499252296517836;-14,069032868434705;-1,6479995117038484
11:53:55.365;0;Mov;1;10640;9,97;0;0;0;-0,1315958128604999;0,2440504255186239;-0,013159581658590389;-3,2654805139316996;-15,381328775902585;-2,075258644367809
11:53:55.370;0;Wrist;1;56995;9,86;0;0;-0,6807092740028077;0,4976714436876278;-0,19260842296555986;-0,6807092740028077;-2,807702871791742;-6,19525742362743;-5,615405743583484
11:53:55.370;0;Wrist;1;56996;9,86;0;-0,9127963991019928;0,8781029932935576;-0,9127963991019928;-0,43306986878948334;0,8781029932935576;-2,9297769096957307;0,5493331705679495;-5,3102206488235115
11:53:55.371;0;Wrist;1;56997;9,86;0;-1,2525529448454238;1,1472762468718527;-1,2525529448454238;-0,48690451950514235;1,1472762468718527;-1,1291848506118962;-9,24710837122715;-2,5940733054597613
11:53:55.371;0;Wrist;1;56998;9,86;-0,7165990411465804;-0,5491134611423079;0,6196966340945158;-0,5491134611423079;-0,7165990411465804;0,6196966340945158;0,3051850947599719;-22,7973265785699;-0,5493331705679495
11:53:55.371;0;Wrist;1;56999;9,86;-0,6807092740028077;0;0;0,412732322153386;-0,6807092740028077;0,025122837373181287;2,807702871791742;-26,551103244117556;-0,9765923032319102
11:53:55.421;0;Mov;1;10641;10;0;0;0;-0,020337535459885328;0,15671865582178715;-0,32300790429395426;-3,021332438123722;-15,44236579485458;-2,5940733054597613
11:53:55.421;0;Mov;1;10642;10;0;0;0;-0,20696432684274574;-0,19021577480296487;0,17227089123107853;-3,7232581560716573;-11,719107638782923;-2,288888210699789
11:53:55.421;0;Mov;1;10643;10;0;-0,6938688314462722;0;-0,6938688314462722;-0,11604358490201651;0,31582994490455335;-4,547257911923582;-13,91644032105472;-1,5564439832758568
11:53:55.421;0;Mov;1;10644;10;0;-0,5646656816499832;0;-0,5646656816499832;0,26199529418889433;0,13039949623001038;-3,357036042359691;-21,30191961424604;-0,9460737937559129
11:53:55.421;0;Mov;1;10645;10;0;-0,6304635880802332;0,8960478768654438;-0,6304635880802332;0,10168767357402264;0,8960478768654438;-4,303109836115604;-25,818659016693626;-0,6103701895199438
11:53:55.448;0;Mov;1;10646;9,88;0;-0,5503097628711814;1,0982269222846157;-0,5503097628711814;0,27635121296769616;1,0982269222846157;-8,48414563432722;-36,37806329538866;0,3967406231879635
11:53:55.448;0;Mov;1;10647;9,88;0,5443281350138859;-0,5933775192075869;0;-0,5933775192075869;0,5443281350138859;-0,03349711525577372;-10,681478316599017;-51,42368846705527;2,9602954191717274
11:53:55.448;0;Mov;1;10648;9,88;0,5646656816499832;0;-0,9127963991019928;0,2787438760319071;0,5646656816499832;-0,9127963991019928;-11,20029297769097;-49,37894833216346;5,279702139347514
11:53:55.448;0;Mov;1;10649;9,88;0;0;-1,055159225554674;0,2942960965395825;0,18064516725096896;-1,055159225554674;-10,925626392406995;-38,72798852504044;9,24710837122715
11:53:55.448;0;Mov;1;10650;9,88;0;0;0;0,11006195704472106;-0,040675070919770656;-0,41871395001068146;-11,62755211035493;-28,107547227393415;12,054811243018891
11:53:55.456;0;Wrist;1;57000;10,04;0;-0,6795129126674703;1,0085025044251839;-0,6795129126674703;-0,07895748622613834;1,0085025044251839;7,202368236335337;-22,27851191747795;-2,7771843623157446
11:53:55.457;0;Wrist;1;57001;10,04;-1,250160222174749;-1,1867550384151737;1,5408673837244788;-1,1867550384151737;-1,250160222174749;1,5408673837244788;12,237922299874874;-32,227546006653036;-2,8687398907437363
11:53:55.457;0;Wrist;1;57002;10,04;-1,7885067293313395;0,5503097628711814;0,8673360393078402;0,5503097628711814;-1,7885067293313395;0,8673360393078402;18,18903164769433;-42,48176519058809;-4,1810357982116155
11:53:55.457;0;Wrist;1;57003;10,04;-0,6484084716521195;0,7225806690038759;0;0,7225806690038759;-0,6484084716521195;0,19500107112815485;27,80236213263344;-37,62932218390454;-7,538071840571306
11:53:55.457;0;Wrist;1;57004;10,04;-0,7429182156399732;0;0;0,0933133975541322;-0,7429182156399732;-0,4306772057252724;32,10547196874904;-34,7605822931608;-9,491256447035127
11:53:55.486;0;Wrist;1;57005;9,94;1,015680434011353;0;0;0,1076693014313181;1,015680434011353;-0,21055330653744622;30,732139042329173;-27,985473189489426;-7,17184972685934
11:53:55.486;0;Wrist;1;57006;9,94;0,8422132261497849;-0,783593249305704;0;-0,783593249305704;0,8422132261497849;-0,13638112408730582;31,28147221289712;-22,858363597521898;-4,303109836115604
11:53:55.486;0;Wrist;1;57007;9,94;-0,7716299935911131;0,644819506859035;-1,0252510862681967;0,644819506859035;-0,7716299935911131;-1,0252510862681967;28,626361888485366;-29,328287606433303;-0,9460737937559129
11:53:55.486;0;Wrist;1;57008;9,94;0;1,0372143419827875;0;1,0372143419827875;-0,04904935066506508;-0,14834437980189671;26,97836237678152;-22,461622974333935;-5,1576281014435255
11:53:55.486;0;Wrist;1;57009;9,94;0,581414263492996;0;0;0,026319163317180778;0,581414263492996;-0,4091433573603015;29,267250587481307;-14,435254982146672;-7,141331217383343
11:53:55.513;0;Mov;1;10651;9,96;-0,8314462721640675;0;-1,3339030121768853;0,3864131774632252;-0,8314462721640675;-1,3339030121768853;-7,507553331095309;-22,125919370097964;11,41392254402295
11:53:55.513;0;Mov;1;10652;9,96;-1,4056825464644307;0;-0,6185003323656423;0,23567614949873347;-1,4056825464644307;-0,6185003323656423;-2,6245918149357585;-10,834070863979003;9,063997314371166
11:53:55.514;0;Mov;1;10653;9,96;-0,5395428684919279;0;0;-0,1076693014313181;-0,5395428684919279;-0,33018586368335523;0,6714072084719382;-6,500442518387402;7,354960783715323
11:53:55.514;0;Mov;1;10654;9,96;0;0;-1,3374920365764336;0,3505234103194525;-0,29190343347537157;-1,3374920365764336;5,798516800439467;-4,272591326639607;6,40888698995941
11:53:55.514;0;Mov;1;10655;9,96;-0,6065370766510514;0;0;-0,06819056204365291;-0,6065370766510514;-0,29549242807168796;10,620441297647023;6,225775933103427;4,394665364543596
11:53:55.517;0;Wrist;1;57010;9,85;0;0;-0,9857722947248756;0,1985900508228553;0,29549242807168796;-0,9857722947248756;27,83288064210944;-12,237922299874874;-4,608294930875576
11:53:55.517;0;Wrist;1;57011;9,85;0,5407391702208014;0;-1,592309311769463;0,2942960965395825;0,5407391702208014;-1,592309311769463;20,630512405774102;-8,362071596423231;-3,2654805139316996
11:53:55.517;0;Wrist;1;57012;9,85;0,8697287023720511;0;-1,116171805856502;0,1184362330646115;0,8697287023720511;-1,116171805856502;8,911404766991181;-3,47911008026368;-2,71614734336375
11:53:55.517;0;Wrist;1;57013;9,85;0;1,1604358043153173;-1,3997009186071352;1,1604358043153173;-0,234479817966628;-1,3997009186071352;2,197332682271798;1,8311105685598315;0,793481246375927
11:53:55.518;0;Wrist;1;57014;9,85;0;0;0;0,32420423582605973;0,13279214439260537;-0,19260842296555986;-2,380443739127781;9,277626880703146;-3,6011841181676685
11:53:55.573;0;Mov;1;10656;10,01;0;0;0;-0,0346934430624752;0,02273018548518231;-0,15791497245227668;12,665181432538835;10,834070863979003;3,1128879665517135
11:53:55.573;0;Mov;1;10657;10,01;0;0;0;-0,2715659166425062;-0,0023926511894857296;0,019141209515885837;11,84118167668691;13,428144169438765;3,5401470992156745
11:53:55.574;0;Mov;1;10658;10,01;0;0;0;-0,39837643317781607;-0,3146336431756798;-0,42828457246429336;13,794366283150731;14,252143925290689;4,364146855067599
11:53:55.574;0;Mov;1;10659;10,01;0;0;0;-0,29668875960379343;-0,0693868861249504;-0,16868191153637807;16,51051362651448;14,862514114810633;5,005035554063539
11:53:55.574;0;Mov;1;10660;10,01;0;0;0;-0,04546037097036462;0,3349711600085452;-0,32300790429395426;17,548142948698384;16,357921079134496;5,706961272011475
11:53:55.578;0;Wrist;1;57015;9,9;0;0;-0,6436231455236976;-0,06220893046095347;0,21414228623214668;-0,6436231455236976;-5,920590838343455;8,850367748039186;-3,6317026276436657
11:53:55.578;0;Wrist;1;57016;9,9;0;0;0;0,35770133990562153;-0,3900021422563097;0;-9,949034089175084;11,780144657734915;-2,166814172795801
11:53:55.578;0;Wrist;1;57017;9,9;-0,6161076693014313;0,7381328895115512;-1,350651594019898;0,7381328895115512;-0,6161076693014313;-1,350651594019898;-9,949034089175084;15,655995361186559;-2,288888210699789
11:53:55.578;0;Wrist;1;57018;9,9;0,8792992950224311;0;-1,0120914096118045;0,3660756308271279;0,8792992950224311;-1,0120914096118045;-15,717032380138553;26,245918149357585;-2,6245918149357585
11:53:55.578;0;Wrist;1;57019;9,9;0,6077333783799249;0;0,5180089605204932;-0,473744932258446;0,6077333783799249;0,5180089605204932;-22,888882106997894;29,23673207800531;-4,486220892971588
11:53:55.599;0;Mov;1;10661;9,9;0;0;0;-0,2715659166425062;0,18782311173875393;-0,05144199882766007;16,998809778130436;19,34873500778222;6,500442518387402
11:53:55.600;0;Mov;1;10662;9,9;0;-0,5383465071565905;0;-0,5383465071565905;0,08135014183954131;0,3900021422563097;15,411847285378583;19,409772026734213;6,164738914151433
11:53:55.600;0;Mov;1;10663;9,9;0;0;0;-0,03708609495047418;0,4653706711401715;-0,3852168459311197;14,954069643238624;16,815698721274455;5,493331705679495
11:53:55.600;0;Mov;1;10664;9,9;0;0;0;-0,3098483170472579;0,3349711600085452;0,2775475444998016;12,756736960966826;20,203253273110143;4,089480269783624
11:53:55.600;0;Mov;1;10665;9,9;0;0;0;-0,363682967762917;0,03230079117447623;0,06460158234895245;11,566515091402936;19,806512649922176;2,807702871791742
11:53:55.640;0;Wrist;1;57020;9,97;0;0;0;0,02273018548518231;-0,027515489261180266;-0,2942960965395825;-24,872585222937712;24,811548203985716;-5,005035554063539
11:53:55.640;0;Wrist;1;57021;9,97;0;0;0;-0,08015381775824382;0,08135014183954131;0,30027772439687794;-27,527695547349467;26,39851069673757;-5,188146610919523
11:53:55.640;0;Wrist;1;57022;9,97;0;0;0;0,0598162785729545;-0,4701559674653615;0,35650503817674795;-25,97125156407361;26,0933256019776;-5,76799829096347
11:53:55.640;0;Wrist;1;57023;9,97;0;0;0;0,12681051653530992;-0,028711815205179753;-0,10168767357402264;-23,25510422070986;28,168584246345407;-6,347849971007416
11:53:55.641;0;Wrist;1;57024;9,97;0;0;0;0,0466566987770661;-0,027515489261180266;0,14595171673768578;-23,285622730185857;30,97628711813715;-7,141331217383343
11:53:55.659;0;Mov;1;10666;9,94;0;0;0;-0,4139286536854915;-0,16030763551648763;-0,20457167868015075;11,566515091402936;19,257179479354228;1,73955504013184
11:53:55.659;0;Mov;1;10667;9,94;0;-0,6687460182882168;0;-0,6687460182882168;-0,43187353725737787;0,18782311173875393;12,512588885158848;19,684438612018187;1,4343699453718681
11:53:55.659;0;Mov;1;10668;9,94;0;0;0;-0,26917325357829525;-0,1507370279644917;-0,12800683316579944;13,702810754722739;16,51051362651448;1,3733329264198737
11:53:55.659;0;Mov;1;10669;9,94;0;0;0;0,07895748622613834;-0,00837427881394343;-0,290707131746498;13,122959074678793;18,79940183721427;2,533036286507767
11:53:55.659;0;Mov;1;10670;9,94;0;0;0;-0,03230079117447623;-0,00837427881394343;-0,12202521275931195;12,604144413586841;23,71288186284982;1,73955504013184
11:53:55.667;0;Wrist;1;57025;9,86;0;0;0;0,10288399765532014;-0,31224098011146884;0,12202521275931195;-21,85125278481399;33,35673085726493;-8,667256691183203
11:53:55.667;0;Wrist;1;57026;9,86;0;0;0;0,10527665326872311;-0,1184362330646115;-0,26558428878521073;-19,959105197302165;36,50013733329264;-9,88799707022309
11:53:55.667;0;Wrist;1;57027;9,86;0;0;0;0,26079899246002075;-0,33736382307275614;-0,1674855800042726;-20,172734763634143;38,48384044923246;-10,620441297647023
11:53:55.667;0;Wrist;1;57028;9,86;0;0,7154026798112431;-0,930741342280343;0,7154026798112431;-0,26199529418889433;-0,930741342280343;-20,386364329966124;41,96295052949614;-11,352885525070956
11:53:55.668;0;Wrist;1;57029;9,86;0;0;0,5778252390934476;-0,1339884610230949;0,30386668918996246;0,5778252390934476;-23,224585711233864;48,03613391521958;-12,17688528092288
11:53:55.720;0;Mov;1;10671;9,99;0;0;-0,5658619833788567;0,10288399765532014;-0,0119632557145909;-0,5658619833788567;12,329477828302865;27,344584490493485;1,0376293221839046
11:53:55.720;0;Mov;1;10672;9,99;0;0;0;-0,0717795342875454;-0,18543046357615894;-0,1507370279644917;11,597033600878934;32,837916196172976;0,640888698995941
11:53:55.720;0;Mov;1;10673;9,99;0;0;0;0,05383465071565905;-0,16868191153637807;-0,3349711600085452;9,308145390179144;34,94369335001679;0,15259254737998595
11:53:55.720;0;Mov;1;10674;9,99;0;0;0;-0,22132023071993165;-0,12322153684060945;0,29549242807168796;6,134220404675435;38,209173863948486;0,7019257179479355
11:53:55.720;0;Mov;1;10675;9,99;0;-1,0707113864558855;0,5909848561433759;-1,0707113864558855;-0,3864131774632252;0,5909848561433759;9,399700918607135;30,732139042329173;5,005035554063539
11:53:55.727;0;Wrist;1;57030;9,91;0;-0,9104037956442458;0,766844727069155;-0,9104037956442458;-0,019141209515885837;0,766844727069155;-24,933622241889704;38,300729392376475;-12,085329752494888
11:53:55.727;0;Wrist;1;57031;9,91;0;-0,7728263549264504;0;-0,7728263549264504;-0,04546037097036462;0,13518479255520036;-22,888882106997894;25,42191839350566;-11,932737205114902
11:53:55.727;0;Wrist;1;57032;9,91;0;0;0;-0,2548173646027253;-0,4653706711401715;0,2739585499034852;-21,607104709006013;18,738364818262276;-10,65095980712302
11:53:55.727;0;Wrist;1;57033;9,91;0;0;0;0,4270882409321879;-0,15552232428968168;-0,39119847378841516;-21,05777153843806;17,48710592974639;-10,98666341135899
11:53:55.727;0;Wrist;1;57034;9,91;0;0;0;0,4223029446069979;-0,3265968988902707;-0,18423414694566942;-22,339548936429946;22,858363597521898;-13,36710715048677
11:53:55.749;0;Mov;1;10676;9,9;0;0;0;-0,4342662003215888;0,22132023071993165;-0,2667806203173162;8,453627124851222;20,661030915250098;3,845332193975646
11:53:55.749;0;Mov;1;10677;9,9;0;0;0;0,3313821952154607;0,3170262764366588;-0,0346934430624752;5,249183629871517;23,407696768089846;2,807702871791742
11:53:55.750;0;Mov;1;10678;9,9;0;0;0;-0,025122837373181287;-0,031104465230476736;-0,23567614949873347;7,507553331095309;23,83495590075381;4,547257911923582
11:53:55.750;0;Mov;1;10679;9,9;0;0;0;0,17466353939367352;0,24046144582392345;-0,2464430736812189;6,836146122623371;26,429029206213567;4,913480025635548
11:53:55.750;0;Mov;1;10680;9,9;0;-0,5634693799211097;0;-0,5634693799211097;-0,12441786092190694;0,358897671437727;7,538071840571306;28,565324869533374;6,714072084719382
11:53:55.790;0;Wrist;1;57035;9,97;-0,5479170998069705;0;0;0,05144199882766007;-0,5479170998069705;0,3828241828669088;-20,905178991058076;26,825769829401533;-15,411847285378583
11:53:55.791;0;Wrist;1;57036;9,97;0;0;0;-0,234479817966628;-0,42110661307489244;0,2859218056180761;-17,27347636341441;27,558214056825463;-14,89303262428663
11:53:55.791;0;Wrist;1;57037;9,97;-0,5515061242065188;0;0;0,02273018548518231;-0,5515061242065188;0,11125828112601856;-13,702810754722739;26,062807092501604;-13,428144169438765
11:53:55.791;0;Wrist;1;57038;9,97;0;0;0;0,297885061332667;-0,4773339268547624;0,010766930701942408;-11,688589129306925;26,276436658833582;-12,878810998870815
11:53:55.791;0;Wrist;1;57039;9,97;-0,6185003323656423;0;0;0,09092074194072924;-0,6185003323656423;0,24046144582392345;-9,063997314371166;28,71791741691336;-11,53599658192694
11:53:55.816;0;Wrist;1;57040;9,87;0;0;0;-0,27635121296769616;0,03230079117447623;0,17825251908837397;-7,38547929319132;29,57243568224128;-11,444441053498947
11:53:55.816;0;Wrist;1;57041;9,87;0;0;0;-0,3026703874610889;0,014355907602589877;0,22132023071993165;-5,706961272011475;25,57451094088565;-10,834070863979003
11:53:55.817;0;Wrist;1;57042;9,87;0;0;0;-0,08015381775824382;-0,32061527103297527;0,003588976900647469;-6,19525742362743;20,813623462630087;-11,41392254402295
11:53:55.817;0;Wrist;1;57043;9,87;0;0;0;0,290707131746498;-0,43306986878948334;0,04426404688906713;-10,742515335551012;18,82992034669027;-13,000885036774804
11:53:55.817;0;Wrist;1;57044;9,87;-1,3757744071779534;0;0;0,04187139500106815;-1,3757744071779534;-0,00837427881394343;-15,961180455946531;19,257179479354228;-14,435254982146672
11:53:55.839;0;Mov;1;10681;10,08;0;0;0;0,020337535459885328;0,1794488357188635;-0,1315958128604999;7,690664387951292;23,13303018280587;8,606219672231209
11:53:55.839;0;Mov;1;10682;10,08;0;0;0;0,1387737722499008;0,25362103307061984;-0,11125828112601856;6,805627613147374;25,269325846125675;9,399700918607135
11:53:55.839;0;Mov;1;10683;10,08;0;0;0;-0,3816278513348033;-0,2548173646027253;0,3086520153183844;6,927701651051363;26,337473677785578;12,909329508346813
11:53:55.839;0;Mov;1;10684;10,08;0;0;0;-0,08135014183954131;-0,052638326634361556;0,01674855762788686;5,127109591967528;22,675252540665912;12,81777397991882
11:53:55.840;0;Mov;1;10685;10,08;0;0;0;-0,13279214439260537;0,11006195704472106;0,009570604757942918;3,5096285897396773;22,858363597521898;13,183996093630787
11:53:55.868;0;Mov;1;10686;9,99;0;-0,6412305420659505;0;-0,6412305420659505;-0,32420423582605973;0,21055330653744622;3,9063692129276406;21,454512161626027;16,571550645466477
11:53:55.868;0;Mov;1;10687;9,99;0;0;0;-0,1507370279644917;0,06460158234895245;0,03947874311306917;4,699850459303567;17,94488357188635;15,747550889614551
11:53:55.868;0;Mov;1;10688;9,99;0;0;0;0,08135014183954131;0,14475540010719626;0;6,40888698995941;17,91436506241035;18,219550157170325
11:53:55.868;0;Mov;1;10689;9,99;0;-0,8972441785943175;0;-0,8972441785943175;-0,3971801016457106;-0,010766930701942408;9,063997314371166;19,47080904568621;19,77599414044618
11:53:55.869;0;Mov;1;10690;9,99;0;0;0;-0,3194189395008698;0,30745568378627885;0,3780388865417188;11,749626148258919;13,092440565202795;19,837031159398176
11:53:55.877;0;Wrist;1;57045;9,91;1,3374920365764336;-0,830249970435194;0;-0,830249970435194;1,3374920365764336;-0,10886562551261558;-29,267250587481307;17,3955504013184;-22,705771050141912
11:53:55.877;0;Wrist;1;57046;9,91;-1,5516343377101962;0,7345439247184667;0,8135013885921811;0,7345439247184667;-1,5516343377101962;0,8135013885921811;-16,20532853175451;8,758812219611194;-11,719107638782923
11:53:55.877;0;Wrist;1;57047;9,91;-1,0132878305536057;0,9702200742172002;0;0,9702200742172002;-1,0132878305536057;-0,14595171673768578;-9,857478560747094;5,462813196203498;-12,756736960966826
11:53:55.877;0;Wrist;1;57048;9,91;0;-2,395043746375927;1,1257423389004182;-2,395043746375927;0,1411664204124958;1,1257423389004182;-11,871700186162908;15,472884304330577;-7,538071840571306
11:53:55.877;0;Wrist;1;57049;9,91;0;0,8661397375789667;0;0,8661397375789667;0,21653493439474167;-0,2129459547000412;-3,2654805139316996;19,98962370677816;4,791405987731559
11:53:55.899;0;Mov;1;10691;9,91;0;0;0;0,03947874311306917;0,1674855800042726;0,06819056204365291;11,810663167210913;13,672292245246743;14,099551377910704
11:53:55.899;0;Mov;1;10692;9,91;0;0;0;-0,06699423051154745;-0,031104465230476736;0,27276224817461164;15,015106662190618;14,618366039002655;13,306070131534776
11:53:55.899;0;Mov;1;10693;9,91;0;0;0;-0,15911130398438214;-0,4498184208292642;-0,04904935066506508;20,386364329966124;17,242957853938414;11,566515091402936
11:53:55.899;0;Mov;1;10694;9,91;-0,7297585985900449;0;0;-0,39119847378841516;-0,7297585985900449;0,0346934430624752;21,423993652150028;17,60917996765038;13,397625659962767
11:53:55.899;0;Mov;1;10695;9,91;-0,6974577962393567;0;0;-0,4534073856223487;-0,6974577962393567;0,11365092928861355;23,102511673329875;16,571550645466477;15,289773247474594
11:53:55.936;0;Wrist;1;57050;9,95;0;0;0;0,06699423051154745;0,3888058107242042;-0,12561418500320445;0,18311105685598317;14,1300698873867;-0,5188146610919523
11:53:55.936;0;Wrist;1;57051;9,95;0;0;0;0,15911130398438214;0,2751548814355907;-0,15911130398438214;-2,1362956633198036;11,719107638782923;-6,19525742362743
11:53:55.936;0;Wrist;1;57052;9,95;0,5467207980780968;-0,5503097628711814;0;-0,5503097628711814;0,5467207980780968;0,10288399765532014;-6,19525742362743;17,27347636341441;-8,362071596423231
11:53:55.936;0;Wrist;1;57053;9,95;0;0;0;-0,117239908983314;0,21653493439474167;-0,29668875960379343;-5,554368724631489;21,30191961424604;-8,514664143803216
11:53:55.936;0;Wrist;1;57054;9,95;0;0,9773980038033693;0;0,9773980038033693;-0,21653493439474167;-0,44024782817888425;-5,798516800439467;20,508438367870113;-10,071108127079073
11:53:55.959;0;Mov;1;10696;9,95;-0,5287759145062105;0;0;-0,32540056735816525;-0,5287759145062105;-0,0693868861249504;26,85628833887753;19,226660969878232;15,32029175695059
11:53:55.959;0;Mov;1;10697;9,95;0;0;0;-0,29668875960379343;-0,09211707347283471;-0,0011963255947428648;27,1614734336375;20,905178991058076;17,120883816034425
11:53:55.959;0;Mov;1;10698;9,95;0;0;0;-0,23806879766132846;0,0705832102062479;-0,2009826989854503;30,365916928617207;24,414807580797753;16,96829126865444
11:53:55.960;0;Mov;1;10699;9,95;0;0;0;-0,33257852674756616;0,0933133975541322;-0,20696432684274574;29,69450972014527;22,15643787957396;15,472884304330577
11:53:55.960;0;Mov;1;10700;9,95;0;0,6890835649243141;-0,8541764818643758;0,6890835649243141;-0,10527665326872311;-0,8541764818643758;27,1614734336375;15,32029175695059;16,3274025696585
11:53:55.967;0;Wrist;1;57055;9,69;0;-0,5634693799211097;0;-0,5634693799211097;0,05144199882766007;0,37564622347750787;-7,080294198431349;21,51554918057802;-11,505478072450941
11:53:55.967;0;Wrist;1;57056;9,69;0;0;0;-0,06819056204365291;0,10288399765532014;-0,18303781541356395;-4,333628345591602;27,92443617053743;-9,918515579699088
11:53:55.967;0;Wrist;1;57057;9,69;0;0,5060457048059023;0;0,5060457048059023;0,03947874311306917;0,09092074194072924;-4,547257911923582;24,35377056184576;-10,406811731315043
11:53:55.967;0;Wrist;1;57058;9,69;0;0;0;0,2488357218438139;0,33736382307275614;0,21414228623214668;-4,303109836115604;34,882656331064794;-12,085329752494888
11:53:55.967;0;Wrist;1;57059;9,69;0,5431318332850124;0;0;0,22012391408944212;0,5431318332850124;0,18782311173875393;-5,584887234107486;38,08709982604449;-15,991698965422529
11:53:56.018;0;Mov;1;10701;9,94;0;0;0;-0,354112375112537;0,290707131746498;0,4139286536854915;26,18488113040559;13,275551622058778;19,5623645741142
11:53:56.018;0;Mov;1;10702;9,94;0;-1,191540245330668;0,7608630992118595;-1,191540245330668;0,16509293184167761;0,7608630992118595;28,931546983245337;31,006805627613147;13,91644032105472
11:53:56.019;0;Mov;1;10703;9,94;0;0,5658619833788567;0;0,5658619833788567;-0,3971801016457106;-0,015552232615238368;32,10547196874904;40,2539139988403;10,925626392406995
11:53:56.019;0;Mov;1;10704;9,94;0;0,6292672863513596;0;0,6292672863513596;-0,44024782817888425;-0,13757744071779535;35,645619067964724;44,740134891811884;12,634662923062837
11:53:56.019;0;Mov;1;10705;9,94;0;-1,19632557145909;0,9127963991019928;-1,19632557145909;0,3361674915406507;0,9127963991019928;35,8592486342967;46,26606036561174;11,139255958738975
11:53:56.027;0;Wrist;1;57060;9,84;0;0;0;0,03708609495047418;-0,09690236979802469;0,3218115727618488;-6,500442518387402;43,76354258857997;-17,365031891842403
11:53:56.028;0;Wrist;1;57061;9,84;0;0;0;0,1411664204124958;0,00598162785729545;0,22012391408944212;-12,970366527298808;49,31791131321146;-16,937772759178443
11:53:56.028;0;Wrist;1;57062;9,84;0;-0,5072420661412397;0;-0,5072420661412397;-0,13039949623001038;0,3816278513348033;-18,4942167424543;46,021912289803765;-20,355845820490128
11:53:56.028;0;Wrist;1;57063;9,84;0;0;0;0,4881008510372478;0,24046144582392345;-0,1985900508228553;-23,316141239661857;51,026947843867305;-16,876735740226447
11:53:56.028;0;Wrist;1;57064;9,84;0;-0,7453108190977202;0,6089297397152623;-0,7453108190977202;-0,3864131774632252;0,6089297397152623;-22,217474898525957;47,18161564989166;-15,44236579485458
11:53:56.080;0;Mov;1;10706;10,08;0;0;0;0,25362103307061984;-0,3218115727618488;-0,10886562551261558;41,23050630207221;46,54072695089572;9,24710837122715
11:53:56.080;0;Mov;1;10707;10,08;0;-0,5168126587916196;0;-0,5168126587916196;0,08733176969683676;0,48331555471205784;37,995544297616505;47,63939329203162;6,775109103671377
11:53:56.080;0;Mov;1;10708;10,08;0;0;0;0,1818414838814585;-0,32300790429395426;-0,45580004868655966;34,058656575212865;43,45835749382;4,150517288735618
11:53:56.080;0;Mov;1;10709;10,08;0,6496047733809931;-0,5826105652218696;0;-0,5826105652218696;0,6496047733809931;0,1866267951082644;31,434064760277106;44,92324594866787;4,852443006683553
11:53:56.080;0;Mov;1;10710;10,08;0;0;0;-0,41153599062128055;0,32061527103297527;-0,031104465230476736;35,55406353953673;48,615985595263524;2,9297769096957307
11:53:56.087;0;Wrist;1;57065;9,23;0;0;0;0,06340525826765496;0,35291604358043155;-0,004785302378971459;-24,47584459974975;49,806207464827416;-10,52888576921903
11:53:56.087;0;Wrist;1;57066;9,23;0;0;0;0,15193334459498123;-0,0023926511894857296;0,1818414838814585;-21,423993652150028;38,39228492080447;-10,467848750267036
11:53:56.087;0;Wrist;1;57067;9,23;0;0;0;-0,1315958128604999;-0,21892758255733666;0,0011963255947428648;-20,508438367870113;37,41569261757256;-10,467848750267036
11:53:56.088;0;Wrist;1;57068;9,23;0;0;0;0,0358897671437727;-0,36846829389133884;-0,22012391408944212;-16,418958098086488;31,556138798181095;-12,115848261970886
11:53:56.088;0;Wrist;1;57069;9,23;-0,8326426334994049;0;0;-0,2009826989854503;-0,8326426334994049;0,2129459547000412;-11,719107638782923;24,68947416608173;-11,810663167210913
11:53:56.116;0;Wrist;1;57070;9,2;-0,7680410287980285;0;0;-0,19978636745334483;-0,7680410287980285;0,02990813928647725;-9,735404522843105;23,285622730185857;-8,301034577471237
11:53:56.116;0;Wrist;1;57071;9,2;-1,3374920365764336;0;0;-0,3134373116435743;-1,3374920365764336;-0,027515489261180266;-6,0121463667714465;19,34873500778222;-2,8992584002197335
11:53:56.116;0;Wrist;1;57072;9,2;-1,2405896891308328;0;0;-0,28352917235709707;-1,2405896891308328;0,33018586368335523;-10,711996826075014;25,696584978789637;4,913480025635548
11:53:56.117;0;Wrist;1;57073;9,2;-0,6914761683820613;0;0;-0,09690236979802469;-0,6914761683820613;0,4498184208292642;-11,597033600878934;30,549027985473188;11,993774224066897
11:53:56.117;0;Wrist;1;57074;9,2;-0,5527024259353923;0;0;0,4091433573603015;-0,5527024259353923;-0,22371287888252664;-7,324442274239326;34,39436017944884;16,144291512802514
11:53:56.141;0;Mov;1;10711;10,08;0,7764153197195349;-0,6400341807306131;0;-0,6400341807306131;0,7764153197195349;-0,1914120914334544;31,189916684469132;45,930356761375776;2,7466658528397474
11:53:56.141;0;Mov;1;10712;10,08;0,7369365877826777;0;0;-0,46297800807596057;0,7369365877826777;-0,2548173646027253;29,206213568529314;51,0574663533433;2,5940733054597613
11:53:56.141;0;Mov;1;10713;10,08;0,8135013885921811;0;0;-0,4246955778679769;0,8135013885921811;-0,0693868861249504;19,837031159398176;46,327097384563736;-2,563554795983764
11:53:56.141;0;Mov;1;10714;10,08;0,9558641554383984;0;-0,5467207980780968;-0,47135229899746695;0,9558641554383984;-0,5467207980780968;8,453627124851222;36,80532242805261;-10,742515335551012
11:53:56.141;0;Mov;1;10715;10,08;1,5253151036103396;-0,708224750225074;0;-0,708224750225074;1,5253151036103396;-0,0957060457167272;-4,058961760307627;31,983397930845058;-20,29480880153813
11:53:56.176;0;Wrist;1;57075;9,42;0;0;0;-0,117239908983314;0,22012391408944212;-0,13638112408730582;-10,559404278695029;28,68739890743736;15,198217719046601
11:53:56.176;0;Wrist;1;57076;9,42;0;0;0;0,45580004868655966;0,27276224817461164;-0,4534073856223487;-15,44236579485458;26,52058473464156;10,834070863979003
11:53:56.176;0;Wrist;1;57077;9,42;0,5455244963492233;0,5072420661412397;0;0,5072420661412397;0,5455244963492233;-0,13757744071779535;-21,72917874691;27,28354747154149;5,615405743583484
11:53:56.176;0;Wrist;1;57078;9,42;0;0;0;0,3852168459311197;0,39598377011360514;-0,058619954491657;-27,92443617053743;30,610065004425184;0,5188146610919523
11:53:56.176;0;Wrist;1;57079;9,42;0;0,9666311094241157;0;0,9666311094241157;-0,239265114291818;0,32300790429395426;-30,793176061281166;36,71376689962462;-1,7090365306558428
11:53:56.200;0;Mov;1;10716;9,83;0,764452064004944;0;-0,5180089605204932;-0,2739585499034852;0,764452064004944;-0,5180089605204932;-8,331553086947233;32,13599047822505;-30,30487990966521
11:53:56.200;0;Mov;1;10717;9,83;0,9462935627880185;0;0;-0,41153599062128055;0,9462935627880185;-0,21773125102523117;-17,548142948698384;25,23880733664968;-38,69747001556444
11:53:56.200;0;Mov;1;10718;9,83;0,9690237128818628;0;0;-0,15671865582178715;0,9690237128818628;0,25003203847430344;-23,25510422070986;26,337473677785578;-47,97509689626759
11:53:56.200;0;Mov;1;10719;9,83;0;0;0,9893612595179602;0,10408032918742562;-0,07297585836884289;0,9893612595179602;-28,168584246345407;33,87554551835689;-56,58131656849879
11:53:56.200;0;Mov;1;10720;9,83;-1,6042725674840541;0;0,827857307370983;0,38043154960592973;-1,6042725674840541;0,827857307370983;-18,433179723502302;41,07791375469222;-58,22931608020264
11:53:56.232;0;Mov;1;10721;9,95;-1,0790857369838558;0;0,527579612777337;0,3146336431756798;-1,0790857369838558;0,527579612777337;-7,72118289742729;47,66991180150762;-49,501022370067446
11:53:56.233;0;Mov;1;10722;9,95;-0,651997436445204;0;0;-0,18064516725096896;-0,651997436445204;0,007177953801294938;-4,24207281716361;51,36265144810327;-41,35258033997619
11:53:56.233;0;Mov;1;10723;9,95;-0,9773980038033693;0;0;0,42110661307489244;-0,9773980038033693;0,3134373116435743;-8,087405011139255;55,787835322122866;-33,99761955626087
11:53:56.233;0;Mov;1;10724;9,95;-0,6831019370670186;3,164281136509293;1,331510408719138;3,164281136509293;-0,6831019370670186;1,331510408719138;-7,812738425855281;71,7184972685934;-25,513473921933652
11:53:56.233;0;Mov;1;10725;9,95;-0,7070284484962004;1,7251015455717642;0;1,7251015455717642;-0,7070284484962004;0,46776330440115055;-1,8311105685598315;74,52620014038514;-18,18903164769433
11:53:56.238;0;Wrist;1;57080;8,93;0;0;0;0,1435590685750908;-0,007177953801294938;0,015552232615238368;-34,730063783684805;49,56205938901944;0,12207403790398877
11:53:56.238;0;Wrist;1;57081;8,93;0;1,4391797101504562;0;1,4391797101504562;-0,09929502541142765;0,020337535459885328;-37,903988769188516;50,14191106906339;-0,7324442274239327
11:53:56.238;0;Wrist;1;57082;8,93;0,6687460182882168;2,3172825842310862;0,6460158085879085;2,3172825842310862;0,6687460182882168;0,6460158085879085;-42,146061586352126;51,63731803338725;-3,69273964659566
11:53:56.238;0;Wrist;1;57083;8,93;1,06472975859859;2,32685323648793;2,0540909585100864;2,32685323648793;1,06472975859859;2,0540909585100864;-40,89480269783624;65,24857325968199;-8,57570116275521
11:53:56.238;0;Wrist;1;57084;8,93;0;2,353172351374859;5,010211779381695;2,353172351374859;0,46297800807596057;5,010211779381695;-25,666066469313638;89,02249214148381;-16,479995117038484
11:53:56.259;0;Mov;1;10726;9,96;0;1,0360179210409863;2,340012913144322;1,0360179210409863;-0,3660756308271279;2,340012913144322;-6,347849971007416;72,6950895718253;-1,586962492751854
11:53:56.260;0;Mov;1;10727;9,96;0;1,7669729405728325;3,667934297463912;1,7669729405728325;-0,010766930701942408;3,667934297463912;-29,175695059053314;110,14130069887386;15,533921323282572
11:53:56.260;0;Mov;1;10728;9,96;-0,7477034821619312;3,707413089007233;7,828754921109653;3,707413089007233;-0,7477034821619312;7,828754921109653;-74,34308908352916;189,82512894070254;42,63435773796808
11:53:56.260;0;Mov;1;10729;9,96;-1,5157445705664236;7,2174324587237155;13,674001281777398;7,2174324587237155;-1,5157445705664236;13,674001281777398;-115,2073732718894;326,059755241554;73,79375591296122
11:53:56.260;0;Mov;1;10730;9,96;-2,031360868022706;6,220892971587268;18,97611735892819;6,220892971587268;-2,031360868022706;18,97611735892819;-174,10809656056398;534,2570268868069;117,16055787835322
11:53:56.299;0;Wrist;1;57085;9,17;0;4,5005769905697806;8,563298249763482;4,5005769905697806;-0,026319163317180778;8,563298249763482;16,75466170232246;138,49299600207524;-31,434064760277106
11:53:56.299;0;Wrist;1;57086;9,17;0;10,37094676046022;15,444563127536851;10,37094676046022;-0,3050630207220679;15,444563127536851;73,64116336558122;242,5611133152257;-61,708426160466324
11:53:56.299;0;Wrist;1;57087;9,17;0,8458021909428693;14,314035462508011;22,261226996673482;14,314035462508011;0,8458021909428693;22,261226996673482;124,63759269997253;440,2905362102115;-111,23996704000976
11:53:56.299;0;Wrist;1;57088;9,17;5,978039071321756;19,98701246681112;24,13467246009705;19,98701246681112;5,978039071321756;24,13467246009705;164,83046967986084;709,5248268074587;-171,39194921720022
11:53:56.299;0;Wrist;1;57089;9,17;6,56304218039491;17,676906262398145;22,306686223944823;17,676906262398145;6,56304218039491;22,306686223944823;193,48735007782219;990,203558458205;-237,12881862849818
11:53:56.320;0;Mov;1;10731;9,95;-0,5682546464430677;6,555864131595813;15,941038239692373;6,555864131595813;-0,5682546464430677;15,941038239692373;-239,17355876339;850,2151554918058;194,28083132419812
11:53:56.320;0;Mov;1;10732;9,95;-17,796538819544054;-14,68728923154393;2,4787865363780632;-14,68728923154393;-17,796538819544054;2,4787865363780632;-198,9501632740257;1000;272,6523636585589
11:53:56.320;0;Mov;1;10733;9,95;-39,123435926389355;-30,290963469344156;18,246358760338143;-30,290963469344156;-39,123435926389355;18,246358760338143;-93,66130558183538;1000;280,5261391033662
11:53:56.320;0;Mov;1;10734;9,95;-39,201197088534194;-26,20910138248848;36,11108737449263;-26,20910138248848;-39,201197088534194;36,11108737449263;59,358500930814536;623,1879634998627;209,9063081759087
11:53:56.320;0;Mov;1;10735;9,95;-13,700320635090183;-21,1905156102176;23,30442213202307;-21,1905156102176;-13,700320635090183;23,30442213202307;251,74718466750085;-76,66249580370494;-194,18927579577013
11:53:56.326;0;Wrist;1;57090;9,28;18,99765007477035;0,7345439247184667;19,740567873165073;0,7345439247184667;18,99765007477035;19,740567873165073;226,59993285927916;1000;-300,6683553575243
11:53:56.326;0;Wrist;1;57091;9,28;37,951036866359445;-22,389233069856868;27,946165349284342;-22,389233069856868;37,951036866359445;27,946165349284342;-225,56230353709526;1000;-166,96676534318064
11:53:56.327;0;Wrist;1;57092;9,28;22,88570818201239;-5,359538560136723;36,44964827417829;-5,359538560136723;22,88570818201239;36,44964827417829;-327,61619922482987;625,0495925778985;226,29474776451917
11:53:56.327;0;Wrist;1;57093;9,28;-29,65571497238075;14,293697737052522;23,842768639179663;14,293697737052522;-29,65571497238075;23,842768639179663;161,29032258064515;-160,8020264290292;220,4046754356517
11:53:56.327;0;Wrist;1;57094;9,28;-39,201197088534194;-1,9404401484344005;18,08844264046144;-1,9404401484344005;-39,201197088534194;18,08844264046144;402,294991912595;97,903378398999;-48,066652424695576
11:53:56.349;0;Mov;1;10736;9,96;22,218159657582323;-8,789404164250618;-18,293013931699576;-8,789404164250618;22,218159657582323;-18,293013931699576;-81,69804986724448;413,67839594714195;18,70784630878628
11:53:56.349;0;Mov;1;10737;9,96;32,56517990661336;10,150822473830377;10,59226699118015;10,150822473830377;32,56517990661336;10,59226699118015;-579,5770134586627;231,4218573564867;333,35367900631735
11:53:56.349;0;Mov;1;10738;9,96;-20,958428067873164;5,548558286538285;37,12677007354961;5,548558286538285;-20,958428067873164;37,12677007354961;170,32380138554032;141,81951353495896;236,73207800531023
11:53:56.349;0;Mov;1;10739;9,96;-36,688913388470105;19,102927488021486;37,196153904843285;19,102927488021486;-36,688913388470105;37,196153904843285;145,54277169103062;81,02664265877254;246,10126041444136
11:53:56.349;0;Mov;1;10740;9,96;-27,708096179082613;19,302713095492415;27,35039635914182;19,302713095492415;-27,708096179082613;27,35039635914182;-68,33094271675772;25,910214545121615;5,127109591967528
11:53:56.387;0;Wrist;1;57095;9,5;-15,056954214606158;6,480495811334574;35,42080828272347;6,480495811334574;-15,056954214606158;35,42080828272347;203,58897671437728;19,623401593066195;-338,6333811456648
11:53:56.387;0;Wrist;1;57096;9,5;26,947233497116002;3,90719941175573;36,075197607348855;3,90719941175573;26,947233497116002;36,075197607348855;169,86602374340038;-82,91879024628437;-435,59068575090794
11:53:56.387;0;Wrist;1;57097;9,5;39,19999923703726;11,781414036988433;21,53266434217353;11,781414036988433;39,19999923703726;21,53266434217353;93,26456495864743;-231,6965239417707;-337,8093813898129
11:53:56.387;0;Wrist;1;57098;9,5;37,57539216284677;19,626916943876463;3,587780531861324;19,626916943876463;37,57539216284677;3,587780531861324;-16,022217474898525;-271,645252845851;-198,46186712240973
11:53:56.387;0;Wrist;1;57099;9,5;33,03892254402295;25,560691778313547;5,5928220465712455;25,560691778313547;33,03892254402295;5,5928220465712455;-15,808587908566546;-244,3922238837855;-76,14368114261299
11:53:56.409;0;Mov;1;10741;9,6;-29,320743812372204;34,95304345835749;15,765179143650624;34,95304345835749;-29,320743812372204;15,765179143650624;357,7990050965911;-34,11969359416486;-111,23996704000976
11:53:56.409;0;Mov;1;10742;9,6;-13,274429113132115;31,757660145878475;29,016876735740226;31,757660145878475;-13,274429113132115;29,016876735740226;30,091250343333233;-147,8926969206824;73,00027466658528
11:53:56.409;0;Mov;1;10743;9,6;-15,65152821436201;36,326425977355264;34,68865779595325;36,326425977355264;-15,65152821436201;34,68865779595325;-42,63435773796808;-194,4639423810541;-3,357036042359691
11:53:56.409;0;Mov;1;10744;9,6;-14,705234115115818;39,19999923703726;35,95078127384259;39,19999923703726;-14,705234115115818;35,95078127384259;21,30191961424604;-250,34333323160496;-41,779839472640155
11:53:56.409;0;Mov;1;10745;9,6;-8,859987754448072;39,19999923703726;35,356208227790155;39,19999923703726;-8,859987754448072;35,356208227790155;52,674947355571156;-331,8277535325175;-54,90279854731895
11:53:56.420;0;Wrist;1;57100;9,62;33,834479049043246;29,859090319528793;16,02119319742424;29,859090319528793;33,834479049043246;16,02119319742424;29,267250587481307;-242,16437269203772;33,90606402783288
11:53:56.420;0;Wrist;1;57101;9,62;30,483573412274545;32,37256996368297;21,880794701986755;32,37256996368297;30,483573412274545;21,880794701986755;66,43879512924589;-286,99606311227757;138,0046998504593
11:53:56.420;0;Wrist;1;57102;9,62;20,585175252540665;32,705149235511335;21,648707159642324;32,705149235511335;20,585175252540665;21,648707159642324;79,31760612811671;-350,8102664265877;222,47993408001952
11:53:56.420;0;Wrist;1;57103;9,62;9,884042062135686;32,87383266701254;20,345910138248847;32,87383266701254;9,884042062135686;20,345910138248847;98,9104892117069;-417,4321726126896;276,31458479567857
11:53:56.420;0;Wrist;1;57104;9,62;4,592693773461104;32,304380169072545;21,82217436750389;32,304380169072545;4,592693773461104;21,82217436750389;131,87047944578387;-478,56074709311196;302,52998443556015
11:53:56.442;0;Mov;1;10746;9,71;-2,80418728255562;39,19999923703726;33,59880367442854;39,19999923703726;-2,80418728255562;33,59880367442854;27,80236213263344;-425,70268868068484;-66,77449873348186
11:53:56.442;0;Mov;1;10747;9,71;-2,0373424958800013;39,19999923703726;29,53608241523484;39,19999923703726;-2,0373424958800013;29,53608241523484;-26,52058473464156;-509,35392315439316;-69,67375713370159
11:53:56.442;0;Mov;1;10748;9,71;-4,591497829371013;39,19999923703726;28,78120136112552;39,19999923703726;-4,591497829371013;28,78120136112552;-53,834650715659045;-579,3023468733787;-69,5822016052736
11:53:56.442;0;Mov;1;10749;9,71;-8,036914998321482;32,44793923764763;30,749156926175726;32,44793923764763;-8,036914998321482;30,749156926175726;-69,03286843470565;-646,9924008911405;-79,13449507126072
11:53:56.443;0;Mov;1;10750;9,71;-9,825421727652822;21,48959700308237;29,347062211981566;21,48959700308237;-9,825421727652822;29,347062211981566;-107,33359782708213;-720,1147495956297;-107,36411633655813
11:53:56.476;0;Wrist;1;57105;9,84;3,694253412350841;28,267977309488206;24,851271858882413;28,267977309488206;3,694253412350841;24,851271858882413;158,02484206671346;-541,1847285378582;319,22360911893065
11:53:56.476;0;Wrist;1;57106;9,84;4,464687223426008;19,86737990966521;26,57039094210639;19,86737990966521;4,464687223426008;26,57039094210639;163,70128482924895;-605,6703390606402;342,72286141544845
11:53:56.476;0;Wrist;1;57107;9,84;4,183550714133122;7,957957892086551;24,939800332651753;7,957957892086551;4,183550714133122;24,939800332651753;149,9374370555742;-667,3177282021546;374,34003723258155
11:53:56.476;0;Wrist;1;57108;9,84;5,4899379520554215;-5,471993068483536;23,98034607989746;-5,471993068483536;5,4899379520554215;23,98034607989746;128,33033234656818;-714,2246772667623;407,4831385235145
11:53:56.476;0;Wrist;1;57109;9,84;6,590557477797784;-20,08630634479812;23,68724631488998;-20,08630634479812;6,590557477797784;23,68724631488998;100,13122959074678;-740,6842249824518;434,461500900296
11:53:56.502;0;Mov;1;10751;9,84;-10,320700895718254;11,298099078341014;24,15620708334605;11,298099078341014;-10,320700895718254;24,15620708334605;-158,7878048036134;-786,8282113101596;-153,1723990600299
11:53:56.502;0;Mov;1;10752;9,84;-14,066395878475296;1,3554369201483198;24,723263878292183;1,3554369201483198;-14,066395878475296;24,723263878292183;-197,21060823389385;-821,1920529801324;-200,81179235206153
11:53:56.502;0;Mov;1;10753;9,84;-18,499979018524733;-13,712283890804773;29,72270882290109;-13,712283890804773;-18,499979018524733;29,72270882290109;-209,41801202429272;-838,7096774193549;-257,97296060060427
11:53:56.502;0;Mov;1;10754;9,84;-15,265114291817987;-30,438112277596364;29,574365977965638;-30,438112277596364;-15,265114291817987;29,574365977965638;-209,02127140110477;-860,1336710715049;-333,9030121768853
11:53:56.502;0;Mov;1;10755;9,84;-6,577398277993103;-39,201197088534194;29,519333475753044;-39,201197088534194;-6,577398277993103;29,519333475753044;-226,29474776451917;-884,0907010101627;-381,8475905636769
11:53:56.536;0;Wrist;1;57110;9,72;5,079598471785638;-35,567957090975675;22,075796533097325;-35,567957090975675;5,079598471785638;22,075796533097325;72,38990447706534;-748,9547410504471;452,0401623584704
11:53:56.536;0;Wrist;1;57111;9,72;2,3567613757744073;-39,201197088534194;19,89848399304178;-39,201197088534194;2,3567613757744073;19,89848399304178;51,30161442915128;-737,1745963927121;449,56816309091465
11:53:56.536;0;Wrist;1;57112;9,72;-0,6292672863513596;-39,201197088534194;17,108651615955075;-39,201197088534194;-0,6292672863513596;17,108651615955075;29,66399121066927;-707,6631977294229;413,434247871334
11:53:56.536;0;Wrist;1;57113;9,72;-7,115744785149693;-39,201197088534194;13,828327661976989;-39,201197088534194;-7,115744785149693;13,828327661976989;24,384289071321756;-666,5547654652547;350,53559984130374
11:53:56.536;0;Wrist;1;57114;9,72;-15,085665456099123;-39,201197088534194;15,348857081820125;-39,201197088534194;-15,085665456099123;15,348857081820125;53,37687307351909;-616,9621875667592;265,2668843653676
11:53:56.561;0;Mov;1;10756;9,96;3,2492203474532304;-39,201197088534194;29,94283310953093;-39,201197088534194;3,2492203474532304;29,94283310953093;-322,30597857600634;-910,2450636310923;-395,6419568468276
11:53:56.561;0;Mov;1;10757;9,96;18,071693700979644;-39,201197088534194;30,502714239936523;-39,201197088534194;18,071693700979644;30,502714239936523;-382,09173863948484;-892,4527726065859;-322,7027191991943
11:53:56.561;0;Mov;1;10758;9,96;30,70010795922727;-39,201197088534194;31,059005630665;-39,201197088534194;30,70010795922727;31,059005630665;-294,4730979338969;-683,6756492812891;-249,27518539994506
11:53:56.561;0;Mov;1;10759;9,96;26,030848490859707;-39,201197088534194;24,470839564195686;-39,201197088534194;26,030848490859707;24,470839564195686;-190,1608325449385;-557,8478347117526;-181,95135349589526
11:53:56.561;0;Mov;1;10760;9,96;20,957232123783076;-39,201197088534194;6,84896389660329;-39,201197088534194;20,957232123783076;6,84896389660329;-49,83672597430341;-469,25260170293285;-84,47523422956023
11:53:56.567;0;Wrist;1;57115;9,84;-15,5103610339671;-39,201197088534194;7,855073797570727;-39,201197088534194;-15,5103610339671;7,855073797570727;81,69804986724448;-548,1734672078616;171,36143070772422
11:53:56.567;0;Wrist;1;57116;9,84;-19,01080927457503;-39,201197088534194;-18,30856692709128;-39,201197088534194;-19,01080927457503;-18,30856692709128;50,81331827753532;-436,7198706015198;98,54426709799493
11:53:56.567;0;Wrist;1;57117;9,84;-25,161120563371686;-39,201197088534194;-27,69134914700766;-39,201197088534194;-25,161120563371686;-27,69134914700766;-2,410962248603778;-309,9765007477035;12,634662923062837
11:53:56.567;0;Wrist;1;57118;9,84;-13,376116786706138;-39,201197088534194;-21,655886638996552;-39,201197088534194;-13,376116786706138;-21,655886638996552;-7,049775688955352;-209,26541947691274;-87,95434430982391
11:53:56.567;0;Wrist;1;57119;9,84;6,841785847804193;-39,201197088534194;-30,130657368694113;-39,201197088534194;6,841785847804193;-30,130657368694113;-29,02310251167333;-104,12915433210242;-123,53892635883663
11:53:56.593;0;Mov;1;10761;9,85;8,821705145420697;-39,201197088534194;-11,578038689840389;-39,201197088534194;8,821705145420697;-11,578038689840389;95,03463850825526;-317,7587206640828;-1,6479995117038484
11:53:56.593;0;Mov;1;10762;9,85;-5,225550382244331;-39,201197088534194;-28,553899502548294;-39,201197088534194;-5,225550382244331;-28,553899502548294;144,23047578356272;-181,82927945799128;20,722067934202094
11:53:56.593;0;Mov;1;10763;9,85;-18,139885402996917;-39,201197088534194;-39,201197088534194;-39,201197088534194;-18,139885402996917;-39,201197088534194;120,7922605059969;-50,38605914487137;1,1597033600878932
11:53:56.593;0;Mov;1;10764;9,85;-21,141466643269144;-39,201197088534194;-35,658875545518356;-39,201197088534194;-21,141466643269144;-35,658875545518356;13,977477340006715;74,22101504562517;-59,053315836054566
11:53:56.593;0;Mov;1;10765;9,85;0;-39,201197088534194;-23,56641781365398;-39,201197088534194;-0,4342662003215888;-23,56641781365398;-63,295388653218176;199,25534836878566;-123,9356669820246
11:53:56.627;0;Wrist;1;57120;9,96;17,524973677785578;-39,201197088534194;-35,77731406598102;-39,201197088534194;17,524973677785578;-35,77731406598102;-50,50813318277535;11,20029297769097;-91,43345439008759
11:53:56.627;0;Wrist;1;57121;9,96;18,77991958372753;-39,201197088534194;-33,08917126987518;-39,201197088534194;18,77991958372753;-33,08917126987518;-2,044740134891812;142,5519577623829;-27,03939939573351
11:53:56.627;0;Wrist;1;57122;9,96;9,025080492568742;-23,032856990264595;-31,988549836725973;-23,032856990264595;9,025080492568742;-31,988549836725973;48,09717093417157;272,4387340922269;47,05954161198767
11:53:56.628;0;Wrist;1;57123;9,96;-27,2211924344615;26,136125904110845;-39,201197088534194;26,136125904110845;-27,2211924344615;-39,201197088534194;187,59727774895475;430,2194280831324;1,0071108127079074
11:53:56.628;0;Wrist;1;57124;9,96;-23,3893608661153;11,379449026459548;-39,201197088534194;11,379449026459548;-23,3893608661153;-39,201197088534194;104,25122837000642;872,9514450514237;-332,22449415570543
11:53:56.649;0;Mov;1;10766;9,95;20,077932828760645;-36,157746360667744;-21,840119251075777;-36,157746360667744;20,077932828760645;-21,840119251075777;-106,5095980712302;304,75783562730794;-114,44441053498947
11:53:56.649;0;Mov;1;10767;9,95;34,7209578234199;20,859132282479322;-33,999572740867336;20,859132282479322;34,7209578234199;-33,999572740867336;-263,9545884578997;448,6220892971587;206,09149449140904
11:53:56.649;0;Mov;1;10768;9,95;-1,8423413800469985;-4,429993877224036;-12,297030930509354;-4,429993877224036;-1,8423413800469985;-12,297030930509354;181,5240943632313;661,0614337595752;446,02801599169896
11:53:56.649;0;Mov;1;10769;9,95;-30,152190084536272;-39,201197088534194;-5,310489116336558;-39,201197088534194;-30,152190084536272;-5,310489116336558;328,3791619617298;1000;248,72585222937713
11:53:56.649;0;Mov;1;10770;9,95;5,8572100932340465;-32,406067842646564;10,932022881252479;-32,406067842646564;5,8572100932340465;10,932022881252479;644,0931424909207;1000;104,83108005005036
11:53:56.716;0;Wrist;1;57125;10,08;30,01820238349559;-39,201197088534194;1,4475539414654988;-39,201197088534194;30,01820238349559;1,4475539414654988;-182,07342753379925;1000;-437,0860927152318
11:53:56.716;0;Wrist;1;57126;10,08;15,378765221106601;-16,709080401013214;2,1438153763695182;-16,709080401013214;15,378765221106601;2,1438153763695182;-788,8424329355754;1000;-284,5545823541978
11:53:56.716;0;Wrist;1;57127;10,08;-16,73659474471267;5,373894657734916;-7,9352278015991695;5,373894657734916;-16,73659474471267;-7,9352278015991695;-133,4269234290597;-127,44529557176428;-164,0369884334849
11:53:56.716;0;Wrist;1;57128;10,08;-2,6785730975524156;-0,5562913907284768;1,9859004486220893;-0,5562913907284768;-2,6785730975524156;1,9859004486220893;61,89153721732231;110,50752281258583;-4,211554307687613
11:53:56.716;0;Wrist;1;57129;10,08;9,916343043305766;-25,774834437086092;-4,835548150578326;-25,774834437086092;9,916343043305766;-4,835548150578326;-46,113467818231754;170,56794946134832;-2,71614734336375
11:53:56.718;0;Wrist;1;57130;9,96;5,973253864406263;-9,717752426221503;-1,3267250825907162;-9,717752426221503;5,973253864406263;-1,3267250825907162;-34,211249122592854;-11,780144657734915;-4,364146855067599
11:53:56.718;0;Wrist;1;57131;9,96;-5,077205629902036;4,590301408429212;1,4786583824808497;4,590301408429212;-5,077205629902036;1,4786583824808497;-13,397625659962767;-44,22132023071993;-9,857478560747094
11:53:56.718;0;Wrist;1;57132;9,96;-1,320743454733421;-6,3895749725333415;1,6114506162831508;-6,3895749725333415;-1,320743454733421;1,6114506162831508;-9,67436750389111;6,683553575243385;-7,080294198431349
11:53:56.718;0;Wrist;1;57133;9,96;0;-6,23405264824366;0,9056184695158238;-6,23405264824366;-0,40675069429609056;0,9056184695158238;-1,4343699453718681;-4,24207281716361;13,91644032105472
11:53:56.718;0;Wrist;1;57134;9,96;2,136637565996277;-2,2024354724265267;-1,3542406184194464;-2,2024354724265267;2,136637565996277;-1,3542406184194464;1,2207403790398876;-14,89303262428663;20,87466048158208
11:53:56.777;0;Wrist;1;57135;9,97;-0,8063234590060121;-3,536338484603412;0;-3,536338484603412;-0,8063234590060121;0,1914120914334544;-2,288888210699789;-14,34369945371868;13,672292245246743
11:53:56.778;0;Wrist;1;57136;9,97;-0,9199743882946257;-0,5909848561433759;-1,191540245330668;-0,5909848561433759;-0,9199743882946257;-1,191540245330668;2,6245918149357585;-11,566515091402936;14,801477095858639
11:53:56.778;0;Wrist;1;57137;9,97;0;-1,4726767546235542;-0,5012604382839442;-1,4726767546235542;0,021533861403884816;-0,5012604382839442;3,3875545518356884;2,7466658528397474;5,4322946867275
11:53:56.779;0;Wrist;1;57138;9,97;0;-5,0126041444135865;0;-5,0126041444135865;0,27635121296769616;0,32779320061914424;5,096591082491531;2,5025177770317697;1,1291848506118962
11:53:56.779;0;Wrist;1;57139;9,97;0;-4,455116332743309;0;-4,455116332743309;-0,21773125102523117;0,19739371929074984;8,728293710135198;-11,322367015594958;5,005035554063539
11:53:56.806;0;Wrist;1;57140;9,39;-0,7596667378765221;-3,824653042695395;0;-3,824653042695395;-0,7596667378765221;0,3672719623592334;12,756736960966826;-19,5928830835902;9,826960051271096
11:53:56.806;0;Wrist;1;57141;9,39;-0,7728263549264504;-3,5076265278328806;0;-3,5076265278328806;-0,7728263549264504;0,29190343347537157;17,548142948698384;-22,888882106997894;14,862514114810633
11:53:56.806;0;Wrist;1;57142;9,39;0;-2,4680197016052734;0;-2,4680197016052734;0,12561418500320445;-0,3816278513348033;21,72917874691;-21,85125278481399;17,212439344462418
11:53:56.806;0;Wrist;1;57143;9,39;0,9068147712446974;-2,9286050466170233;0;-2,9286050466170233;0,9068147712446974;-0,2667806203173162;24,78102969450972;-21,454512161626027;13,275551622058778
11:53:56.806;0;Wrist;1;57144;9,39;0;-4,084255405590991;0;-4,084255405590991;0,019141209515885837;0,4845118564409314;28,71791741691336;-29,3588061159093;13,672292245246743
11:53:56.919;0;Mov;1;10771;10,81;-3,0350779271065402;16,426746040223396;-4,11655638676107;16,426746040223396;-3,0350779271065402;-4,11655638676107;686,8800927762688;95,85863826410719;287,9726554155095
11:53:56.919;0;Mov;1;10772;10,81;19,260841700491348;9,11001922666097;-15,405084574419385;9,11001922666097;19,260841700491348;-15,405084574419385;-126,89596240119633;83,19345683156834;39,21628467665639
11:53:56.919;0;Mov;1;10773;10,81;-0,830249970435194;-23,888229773857844;0;-23,888229773857844;-0,830249970435194;0,4055543627639851;-27,893917661061433;113,43729972228157;-58,59553819391461
11:53:56.919;0;Mov;1;10774;10,81;-6,742491016113773;-6,908780175176244;0,5383465071565905;-6,908780175176244;-6,742491016113773;0,5383465071565905;61,89153721732231;6,714072084719382;21,759697256385998
11:53:56.920;0;Mov;1;10775;10,81;2,7168554681539354;2,0277718436231575;0;2,0277718436231575;2,7168554681539354;0,3696645956202124;11,108737449262978;6,164738914151433;11,383404034546952
11:53:56.927;0;Wrist;1;57145;9,84;-0,6149113675725577;-3,282717511139256;0;-3,282717511139256;-0,6149113675725577;0,1985900508228553;35,645619067964724;-41,779839472640155;17,975402081362347
11:53:56.927;0;Wrist;1;57146;9,84;0;-2,351976168858913;-0,9199743882946257;-2,351976168858913;0,26079899246002075;-0,9199743882946257;37,842951750236516;-48,127689443647576;19,13510544145024
11:53:56.927;0;Wrist;1;57147;9,84;0;-2,9345866744743185;0;-2,9345866744743185;0,08135014183954131;0,25362103307061984;35,98132267220069;-46,479689931943724;14,67940305795465
11:53:56.928;0;Wrist;1;57148;9,84;0;-3,4896816442609944;0,6041444135868405;-3,4896816442609944;-0,1315958128604999;0,6041444135868405;35,55406353953673;-50,32502212591937;9,521774956511123
11:53:56.928;0;Wrist;1;57149;9,84;0;-4,020850341044343;0,5012604382839442;-4,020850341044343;-0,09690236979802469;0,5012604382839442;34,211249122592854;-56,45924253059481;6,591998046815394
11:53:56.931;0;Wrist;1;57150;9,84;0,774022656655324;-3,2659688100833155;-0,5838068669507431;-3,2659688100833155;0,774022656655324;-0,5838068669507431;26,73421430097354;-66,89657277138585;7,477034821619312
11:53:56.931;0;Wrist;1;57151;9,84;1,7849178241447188;-2,8651997436445202;0;-2,8651997436445202;1,7849178241447188;-0,25003203847430344;14,587847529526657;-69,5211645863216;8,789330729087192
11:53:56.931;0;Wrist;1;57152;9,84;0;-2,476393932920316;0;-2,476393932920316;0,30745568378627885;-0,473744932258446;5,279702139347514;-68,75820184942168;9,582811975463118
11:53:56.931;0;Wrist;1;57153;9,84;-0,764452064004944;-2,0540909585100864;0;-2,0540909585100864;-0,764452064004944;-0,1292031646979049;2,563554795983764;-62,25775933103427;7,080294198431349
11:53:56.931;0;Wrist;1;57154;9,84;0;-2,460841652806177;-0,6185003323656423;-2,460841652806177;0,2548173646027253;-0,6185003323656423;1,6479995117038484;-51,54576250495926;3,662221137119663
11:53:56.952;0;Mov;1;10776;10,69;2,0839990977965637;-6,676693109683523;2,130655938138981;-6,676693109683523;2,0839990977965637;2,130655938138981;-4,699850459303567;32,25806451612903;-2,288888210699789
11:53:56.952;0;Mov;1;10777;10,69;0;-6,944669942320017;0,5479170998069705;-6,944669942320017;0,11245460520731605;0,5479170998069705;-8,02636799218726;14,435254982146672;-16,20532853175451
11:53:56.952;0;Mov;1;10778;10,69;0;-1,0731041091265603;-1,7478316360591448;-1,0731041091265603;0,20696432684274574;-1,7478316360591448;-8,850367748039186;-5,890072328867458;-22,91940061647389
11:53:56.952;0;Mov;1;10779;10,69;0;-2,206024496826075;-0,8039307959418012;-2,206024496826075;-0,2715659166425062;-0,8039307959418012;-5,005035554063539;1,4648884548478653;-20,630512405774102
11:53:56.953;0;Mov;1;10780;10,69;-0,7536851100192267;-3,2910917424542987;0;-3,2910917424542987;-0,7536851100192267;0,04546037097036462;-4,547257911923582;6,225775933103427;-18,18903164769433
11:53:56.955;0;Mov;1;10781;10,58;-0,537150205427717;-3,879683875927;0;-3,879683875927;-0,537150205427717;0,25003203847430344;-6,95822016052736;2,6245918149357585;-11,047700430310984
11:53:56.955;0;Mov;1;10782;10,58;1,057551829012421;-4,470668851283303;0,7058320871608631;-4,470668851283303;1,057551829012421;0,7058320871608631;-14,03851435895871;-4,272591326639607;-9,369182409131138
11:53:56.955;0;Mov;1;10783;10,58;0;-4,483828527939695;0;-4,483828527939695;0,3469344157231361;0,4294808741931669;-22,91940061647389;-14,007995849482711;-17,670216986602373
11:53:56.955;0;Mov;1;10784;10,58;-0,5192053218558306;-3,908395832697531;0;-3,908395832697531;-0,5192053218558306;-0,13279214439260537;-26,154362620929593;-23,25510422070986;-20,783104953154087
11:53:56.955;0;Mov;1;10785;10,58;0;-3,0482376037629324;0;-3,0482376037629324;0,10408032918742562;-0,1315958128604999;-27,588732566301463;-27,92443617053743;-19,531846064638202
11:53:57.016;0;Wrist;1;57155;10,08;1,2142704550309762;-2,8257209521011992;-0,5347575423635059;-2,8257209521011992;1,2142704550309762;-0,5347575423635059;-1,9837031159398175;-41,108432264168215;3,051850947599719
11:53:57.018;0;Wrist;1;57156;10,08;0;-2,514676303521836;0;-2,514676303521836;0,20816065837485123;0,003588976900647469;-6,530961027863399;-36,68324839014863;2,563554795983764
11:53:57.018;0;Wrist;1;57157;10,08;0;-3,1415510460219123;0,5718436112361522;-3,1415510460219123;-0,4845118564409314;0,5718436112361522;-7,4159978026673175;-33,47880489516892;0,640888698995941
11:53:57.018;0;Wrist;1;57158;10,08;0;-3,7684255500961332;0,9498825275811029;-3,7684255500961332;-0,42349924633587144;0,9498825275811029;-6,0121463667714465;-35,401470992156746;2,410962248603778
11:53:57.018;0;Wrist;1;57159;10,08;0;-3,3293741130558185;0;-3,3293741130558185;-0,473744932258446;0,39837643317781607;-4,150517288735618;-39,79613635670034;6,988738670003357
11:53:57.019;0;Wrist;1;57160;9,97;-1,191540245330668;-2,1174962614825894;-1,015680434011353;-2,1174962614825894;-1,191540245330668;-1,015680434011353;-4,516739402447585;-41,13895077364422;9,582811975463118
11:53:57.020;0;Wrist;1;57161;9,97;-0,708224750225074;-1,906942984748375;-0,6699423200170904;-1,906942984748375;-0,708224750225074;-0,6699423200170904;-3,357036042359691;-33,845027008880884;7,232886745811334
11:53:57.020;0;Wrist;1;57162;9,97;0;-3,0661824873348187;0,6890835649243141;-3,0661824873348187;0,1315958128604999;0,6890835649243141;-0,4882961516159551;-25,54399243140965;3,7232581560716573
11:53:57.020;0;Wrist;1;57163;9,97;0;-3,348515417569506;0;-3,348515417569506;-0,415124985217597;0,3014740559289834;0,24414807580797754;-26,245918149357585;4,66933194982757
11:53:57.020;0;Wrist;1;57164;9,97;-0,9427045979949339;-1,9727408911786248;-1,292031617175817;-1,9727408911786248;-0,9427045979949339;-1,292031617175817;0,061037018951994385;-27,344584490493485;5,706961272011475
11:53:57.129;0;Mov;1;10786;11,04;0;-3,021918488876003;0;-3,021918488876003;-0,23089083827192755;-0,3624866660340434;-29,145176549577318;-30,030213324381236;-16,144291512802514
11:53:57.129;0;Mov;1;10787;11,04;0;-3,9933348052156132;0;-3,9933348052156132;-0,2464430736812189;-0,17107455969897306;-29,81658375804926;-34,08917508468886;-11,658070619830928
11:53:57.129;0;Mov;1;10788;11,04;0;-3,377227135914182;0;-3,377227135914182;0,4498184208292642;-0,3146336431756798;-29,053621021149326;-40,040284432508315;-9,765923032319101
11:53:57.130;0;Mov;1;10789;11,04;0;-3,2252938360240484;0;-3,2252938360240484;0,27635121296769616;-0,004785302378971459;-30,671102023377177;-42,63435773796808;-8,514664143803216
11:53:57.130;0;Mov;1;10790;11,04;0;-2,952531558046205;0;-2,952531558046205;0,3134373116435743;-0,25362103307061984;-33,35673085726493;-42,26813562425611;-6,40888698995941
11:53:57.131;0;Mov;1;10791;10,81;-0,6496047733809931;-2,9967955565050204;0;-2,9967955565050204;-0,6496047733809931;-0,2476394052133244;-31,708731345561084;-37,11050752281258;-2,9908139286477247
11:53:57.131;0;Mov;1;10792;10,81;-0,7572740748123111;-4,471865272225105;0,8398205630855738;-4,471865272225105;-0,7572740748123111;0,8398205630855738;-31,922360911893062;-37,690359202856534;0,8850367748039186
11:53:57.131;0;Mov;1;10793;10,81;0;-4,179961451307718;0;-4,179961451307718;0,12800683316579944;0,4665669728690451;-29,11465804010132;-49,25687429425947;0,061037018951994385
11:53:57.131;0;Mov;1;10794;10,81;0,5239905883777887;-3,4729331816309092;0;-3,4729331816309092;0,5239905883777887;0,12561418500320445;-30,732139042329173;-56,94753868221076;0,24414807580797754
11:53:57.131;0;Mov;1;10795;10,81;0;-3,4011536473433637;0;-3,4011536473433637;-0,15193334459498123;-0,1985900508228553;-27,558214056825463;-54,71968749046297;2,8992584002197335
11:53:57.166;0;Wrist;1;57165;10,31;-0,7572740748123111;-0,9175817252304147;-2,7874385814996794;-0,9175817252304147;-0,7572740748123111;-2,7874385814996794;0,12207403790398877;-18,82992034669027;3,0823694570757163
11:53:57.166;0;Wrist;1;57166;10,31;0;-1,702371335871456;-1,1759880844294566;-1,702371335871456;-0,37923521807382427;-1,1759880844294566;0,5798516800439466;-3,9063692129276406;-1,2512588885158848
11:53:57.166;0;Wrist;1;57167;10,31;0;-3,5794060621204262;1,7968810798593098;-3,5794060621204262;-0,35291604358043155;1,7968810798593098;4,425183874019593;4,150517288735618;-3,9063692129276406
11:53:57.166;0;Wrist;1;57168;10,31;-1,0719076881847591;-3,549497922833949;1,3985046168782618;-3,549497922833949;-1,0719076881847591;1,3985046168782618;9,33866389965514;-0,12207403790398877;-2,410962248603778
11:53:57.166;0;Wrist;1;57169;10,31;0;-2,8759668168431656;0;-2,8759668168431656;-0,2009826989854503;-0,30027772439687794;13,214514603106783;-5,096591082491531;-2,044740134891812
11:53:57.168;0;Wrist;1;57170;10,08;1,1783806878872036;-3,1606921121097447;0;-3,1606921121097447;1,1783806878872036;-0,03349711525577372;13,824884792626728;-4,608294930875576;-1,098666341135899
11:53:57.168;0;Wrist;1;57171;10,08;0;-2,7348003517258217;0;-2,7348003517258217;0,14236275194460127;-0,45580004868655966;11,84118167668691;-4,608294930875576;2,0142216254158147
11:53:57.168;0;Wrist;1;57172;10,08;0;-2,2622517509994813;-0,7524888082903531;-2,2622517509994813;-0,4581927117507706;-0,7524888082903531;9,67436750389111;-2,8687398907437363;1,9837031159398175
11:53:57.168;0;Wrist;1;57173;10,08;0,9785943651387067;-3,1989747211371196;0,6986541575746941;-3,1989747211371196;0,9785943651387067;0,6986541575746941;8,301034577471237;1,0681478316599018;0,15259254737998595
11:53:57.168;0;Wrist;1;57174;10,08;0,6196966340945158;-3,543516294976653;0,8015381328775902;-3,543516294976653;0,6196966340945158;0,8015381328775902;5,401776177251503;-0,36622211371196634;2,4414807580797753
11:53:57.197;0;Wrist;1;57175;10,08;-0,6723349830813014;-2,349583565401166;-1,0719076881847591;-2,349583565401166;-0,6723349830813014;-1,0719076881847591;1,4648884548478653;-4,394665364543596;4,272591326639607
11:53:57.197;0;Wrist;1;57176;10,08;0;-2,3483871444593647;-0,8948515155301066;-2,3483871444593647;0,3014740559289834;-0,8948515155301066;-1,1902218695638904;-1,6174810022278512;1,4954069643238623
11:53:57.197;0;Wrist;1;57177;10,08;0,900833143387402;-3,151121698278756;0;-3,151121698278756;0,900833143387402;0,03349711525577372;-3,0823694570757163;1,9837031159398175;0,8239997558519242
11:53:57.197;0;Wrist;1;57178;10,08;0;-2,730014906384472;0;-2,730014906384472;-0,19021577480296487;-0,4306772057252724;-6,714072084719382;1,1291848506118962;2,288888210699789
11:53:57.197;0;Wrist;1;57179;10,08;-0,6364452159375286;-1,880623869861446;-1,3123692234183781;-1,880623869861446;-0,6364452159375286;-1,3123692234183781;-8,6977752006592;3,448591570787683;1,3122959074678793
11:53:57.224;0;Mov;1;10796;11,06;0;-2,5194617488631854;-1,2094851289025543;-2,5194617488631854;-0,1292031646979049;-1,2094851289025543;-19,623401593066195;-47,8835413678396;2,075258644367809
11:53:57.225;0;Mov;1;10797;11,06;-0,7381328895115512;-1,2944243398464919;-2,913052766502884;-1,2944243398464919;-0,7381328895115512;-2,913052766502884;-7,751701406903287;-35,21835993530076;-1,1597033600878932
11:53:57.225;0;Mov;1;10798;11,06;-1,8279855208746605;-1,6808374279000213;-2,635505281609546;-1,6808374279000213;-1,8279855208746605;-2,635505281609546;3,6011841181676685;-18,37214270455031;-4,516739402447585
11:53:57.225;0;Mov;1;10799;11,06;-0,9762017020744956;-2,752745235297708;0;-2,752745235297708;-0,9762017020744956;-0,1543260076591922;11,322367015594958;-4,150517288735618;-5,706961272011475
11:53:57.225;0;Mov;1;10800;11,06;0;-5,97086102252266;4,446742339854121;-5,97086102252266;-0,14714804826979125;4,446742339854121;-0,4272591326639607;-3,1128879665517135;-1,0681478316599018
11:53:57.225;0;Mov;1;10801;10,82;1,4128604760505996;-5,787823400830104;1,814825963431196;-5,787823400830104;1,4128604760505996;1,814825963431196;-10,010071108127079;-25,29984435560167;0,24414807580797754
11:53:57.225;0;Mov;1;10802;10,82;0;-3,1152319311349834;0;-3,1152319311349834;0,19380473959604938;-0,1387737722499008;-9,613330484939116;-39,39939573351238;-2,7466658528397474
11:53:57.225;0;Mov;1;10803;10,82;-1,0168767357402264;-2,203631654942473;-1,3410809417630543;-2,203631654942473;-1,0168767357402264;-1,3410809417630543;-7,873775444807276;-39,826654866176334;-5,21866512039552
11:53:57.226;0;Mov;1;10804;10,82;-0,9953428873752556;-2,247895891827143;-1,1269387598422194;-2,247895891827143;-0,9953428873752556;-1,1269387598422194;-4,058961760307627;-31,922360911893062;-7,873775444807276
11:53:57.226;0;Mov;1;10805;10,82;0;-2,713266443754387;0;-2,713266443754387;-0,417517618478576;0,07776116214484084;-5,615405743583484;-24,47584459974975;-9,369182409131138
11:53:57.226;0;Mov;1;10806;10,59;0,5000640769486069;-2,8963043038727987;0;-2,8963043038727987;0,5000640769486069;-0,4665669728690451;-7,5685903500473035;-21,63762321848201;-11,07821893978698
11:53:57.226;0;Mov;1;10807;10,59;0,8230719812425611;-2,7742791432691427;0;-2,7742791432691427;0,8230719812425611;-0,43306986878948334;-3,5401470992156745;-19,5928830835902;-10,98666341135899
11:53:57.226;0;Mov;1;10808;10,59;1,3925229890209663;-2,124674310281686;-1,4619099198507646;-2,124674310281686;1,3925229890209663;-1,4619099198507646;4,150517288735618;-15,564439832758568;-8,606219672231209
11:53:57.226;0;Mov;1;10809;10,59;1,3159581286049988;-1,7322794751579333;-2,0361460749382;-1,7322794751579333;1,3159581286049988;-2,0361460749382;7,873775444807276;-10,193182164983062;-3,7537766655476545
11:53:57.226;0;Mov;1;10810;10,59;0;-2,6331126781517993;0;-2,6331126781517993;0,1411664204124958;0,031104465230476736;3,2349620044557024;-4,303109836115604;1,3733329264198737
11:53:57.228;0;Mov;1;10811;10,36;0;-4,153642574846645;1,8985687534333324;-4,153642574846645;-0,05742363041035951;1,8985687534333324;-3,357036042359691;-4,821924497207556;3,0823694570757163
11:53:57.228;0;Mov;1;10812;10,36;1,4104678725928526;-3,414313323999756;0,9450972014526811;-3,414313323999756;1,4104678725928526;0,9450972014526811;-2,533036286507767;-10,467848750267036;3,2349620044557024
11:53:57.228;0;Mov;1;10813;10,36;1,7657765196310313;-2,550566070665609;-0,9199743882946257;-2,550566070665609;1,7657765196310313;-0,9199743882946257;0,6103701895199438;-13,855403302102726;7,751701406903287
11:53:57.228;0;Mov;1;10814;10,36;0;-2,8795556028168585;-1,2525529448454238;-2,8795556028168585;-0,16987822816686757;-1,2525529448454238;2,685628833887753;-12,054811243018891;12,17688528092288
11:53:57.228;0;Mov;1;10815;10,36;-1,1257423389004182;-2,6498611407818844;-0,8158940516563921;-2,6498611407818844;-1,1257423389004182;-0,8158940516563921;1,9837031159398175;-6,714072084719382;9,521774956511123
11:53:57.229;0;Wrist;1;57180;9,97;0;-2,061269007309183;-1,057551829012421;-2,061269007309183;0,32420423582605973;-1,057551829012421;-10,467848750267036;11,41392254402295;-0,8850367748039186
11:53:57.229;0;Wrist;1;57181;9,97;0,6591754256378368;-2,8951078829309975;0;-2,8951078829309975;0,6591754256378368;-0,04426404688906713;-14,099551377910704;17,365031891842403;-1,8616290780358287
11:53:57.229;0;Wrist;1;57182;9,97;0;-2,7874385814996794;-0,6938688314462722;-2,7874385814996794;-0,3888058107242042;-0,6938688314462722;-20,966216010010072;16,998809778130436;-1,73955504013184
11:53:57.229;0;Wrist;1;57183;9,97;-0,9068147712446974;-1,7621876144444106;-2,231147190771203;-1,7621876144444106;-0,9068147712446974;-2,231147190771203;-29,3588061159093;18,646809289834284;-2,563554795983764
11:53:57.229;0;Wrist;1;57184;9,97;0;-1,2405896891308328;-3,0374707689901426;-1,2405896891308328;-0,42828457246429336;-3,0374707689901426;-37,50724814600055;30,76265755180517;-4,821924497207556
11:53:57.258;0;Wrist;1;57185;9,83;0,7800042845126194;-1,4834437086092715;0;-1,4834437086092715;0,7800042845126194;-0,07895748622613834;-42,93954283272805;49,958800012207405;-8,178960539567248
11:53:57.258;0;Wrist;1;57186;9,83;0,8673360393078402;-4,6106386570329905;4,815210425122837;-4,6106386570329905;0,8673360393078402;4,815210425122837;-29,267250587481307;66,89657277138585;-12,024292733542893
11:53:57.258;0;Wrist;1;57187;9,83;0;-4,973125591296121;2,450074818033387;-4,973125591296121;-0,49408247889454326;2,450074818033387;-18,219550157170325;48,982207708975494;-11,20029297769097
11:53:57.258;0;Wrist;1;57188;9,83;0;-3,018329464476455;0;-3,018329464476455;0,354112375112537;-0,11604358490201651;-17,212439344462418;31,28147221289712;-7,629627368999298
11:53:57.259;0;Wrist;1;57189;9,83;0;-2,6678060243537707;-0,6639606921597949;-2,6678060243537707;0,40794702582819603;-0,6639606921597949;-19,623401593066195;31,067842646565143;-6,622516556291391
