Frecuencia (Hz);100
time;timespan;canal;id;sample;gap;accX;accY;accZ;rawAccX;rawAccY;rawAccZ;rawGirX;rawGirY;rawGirZ
11:54:31.697;0;Mov;1;10996;16,44;-0,7333475633831293;0;-2,0839990977965637;0,42349924633587144;-0,7333475633831293;-2,0839990977965637;-0,7629627368999298;2,1057771538438064;-6,530961027863399
11:54:31.698;0;Mov;1;10997;16,44;-0,6938688314462722;0;-2,3687246314889983;0,3337748284764397;-0,6938688314462722;-2,3687246314889983;1,2207403790398876;9,308145390179144;-5,829035309915464
11:54:31.698;0;Mov;1;10998;16,44;0;0;-2,2993377006592;-0,021533861403884816;-0,43546250205046233;-2,2993377006592;3,295999023407697;16,418958098086488;-5,035554063539537
11:54:31.698;0;Mov;1;10999;16,44;0;0;-3,313821832941679;0,119632557145909;-0,11604358490201651;-3,313821832941679;4,7303689687795645;21,790215765861994;-4,7303689687795645
11:54:31.698;0;Mov;1;11000;16,44;0,5562913907284768;1,2549455483031708;-6,537919248023926;1,2549455483031708;0,5562913907284768;-6,537919248023926;6,347849971007416;30,915250099185155;-5,066072573015534
11:54:31.698;0;Mov;1;11001;14,4;0,6878872035889767;3,6499894138920257;-10,961931020538957;3,6499894138920257;0,6878872035889767;-10,961931020538957;9,765923032319101;51,026947843867305;-3,5401470992156745
11:54:31.698;0;Mov;1;11002;14,4;0,5455244963492233;5,742362743003632;-14,383422154911955;5,742362743003632;0,5455244963492233;-14,383422154911955;15,930661946470535;90,51789910580767;-1,1902218695638904
11:54:31.698;0;Mov;1;11003;14,4;0,8039307959418012;6,174236369670705;-15,656312944425794;6,174236369670705;0,8039307959418012;-15,656312944425794;30,396435438093203;159,24558244575334;0,3357036042359691
11:54:31.698;0;Mov;1;11004;14,4;-7,155223338267159;1,9500106814783167;6,161076693014313;1,9500106814783167;-7,155223338267159;6,161076693014313;90,36530655842769;238,0138554033021;-2,838221381267739
11:54:31.698;0;Mov;1;11005;14,4;1,1783806878872036;-12,785131572923978;29,246572389904475;-12,785131572923978;1,1783806878872036;29,246572389904475;204,5960875270852;378,58211004974515;-38,514358958708456
11:54:31.699;0;Wrist;1;57360;11,37;0;0;0;0,33736382307275614;0,2524247015385144;0,29190343347537157;2,4719992675557725;36,50013733329264;-4,638813440351573
11:54:31.699;0;Wrist;1;57361;11,37;0;0;0;-0,05503097852236053;0,11125828112601856;0,43665883358256785;2,6551103244117558;33,26517532883694;-3,204443494979705
11:54:31.699;0;Wrist;1;57362;11,37;0;0,7393291912404248;0;0,7393291912404248;-0,21414228623214668;-0,09809870133013016;1,9531846064638203;27,95495468001343;-1,6785180211798456
11:54:31.699;0;Wrist;1;57363;11,37;0;1,6222174510559404;-0,8326426334994049;1,6222174510559404;0,11006195704472106;-0,8326426334994049;0,8850367748039186;30,610065004425184;-1,5259254737998595
11:54:31.699;0;Wrist;1;57364;11,37;0;2,1677418877987;-0,9427045979949339;2,1677418877987;0,25720999786370435;-0,9427045979949339;-0,27466658528397475;40,31495101779229;-4,333628345591602
11:54:31.700;0;Mov;1;11006;12,86;12,763597903378399;-13,37970557267983;15,961375965147862;-13,37970557267983;12,763597903378399;15,961375965147862;82,00323496200446;209,8452711569567;1,098666341135899
11:54:31.701;0;Mov;1;11007;12,86;-8,181670964690085;1,006109781754509;-9,1973508026368;1,006109781754509;-8,181670964690085;-9,1973508026368;39,33835871456038;-61,9830927457503;22,583697012237923
11:54:31.701;0;Mov;1;11008;12,86;-6,936295949430829;0;0;0,36487929929502244;-6,936295949430829;0,4306772057252724;35,06576738792077;120,85329752494889;6,164738914151433
11:54:31.701;0;Mov;1;11009;12,86;3,274343041398358;-0,9175817252304147;2,4787865363780632;-0,9175817252304147;3,274343041398358;2,4787865363780632;28,07702871791742;104,4343394268624;10,345774712363049
11:54:31.701;0;Mov;1;11010;12,86;0;-3,7169837412640767;1,2752830353328044;-3,7169837412640767;-0,1387737722499008;1,2752830353328044;19,409772026734213;84,32264168218025;13,641773735770744
11:54:31.703;0;Mov;1;11011;11,62;-1,3339030121768853;-3,3054476016266365;2,179705143513291;-3,3054476016266365;-1,3339030121768853;2,179705143513291;8,728293710135198;63,11227759636219;8,301034577471237
11:54:31.703;0;Mov;1;11012;11,62;0,8804956563577685;0;-1,1819697122867519;0,06579790643024995;0,8804956563577685;-1,1819697122867519;2,685628833887753;2,533036286507767;4,974517044587542
11:54:31.703;0;Mov;1;11013;11,62;0;0;0;0,15911130398438214;-0,16509293184167761;-0,3888058107242042;1,3122959074678793;30,365916928617207;3,173924985503708
11:54:31.703;0;Mov;1;11014;11,62;-1,2094851289025543;0;0;0,11125828112601856;-1,2094851289025543;0,26917325357829525;4,303109836115604;34,272286141544846;4,608294930875576
11:54:31.703;0;Mov;1;11015;11,62;-1,1807734105578784;0;-0,6531937977805414;0,2942960965395825;-1,1807734105578784;-0,6531937977805414;7,782219916379284;30,579546494949188;7,5685903500473035
11:54:31.704;0;Wrist;1;57365;10,43;0,6735312848101749;1,7394574047441023;-0,8565691449285867;1,7394574047441023;0,6735312848101749;-0,8565691449285867;2,7771843623157446;59,053315836054566;-9,857478560747094
11:54:31.704;0;Wrist;1;57366;10,43;0,7979491680845058;0,7249733320680868;0;0,7249733320680868;0,7979491680845058;-0,0945097216354297;7,110812707907346;73,24442274239325;-14,435254982146672
11:54:31.704;0;Wrist;1;57367;10,43;0,8039307959418012;0;0,7500961452261422;-0,1961974026602603;0,8039307959418012;0,7500961452261422;9,918515579699088;73,61064485610522;-14,740440076906644
11:54:31.704;0;Wrist;1;57368;10,43;1,3841487577059237;-0,5168126587916196;0,701046820638905;-0,5168126587916196;1,3841487577059237;0,701046820638905;9,67436750389111;61,37272255623035;-15,533921323282572
11:54:31.704;0;Wrist;1;57369;10,43;-1,4463576397366253;1,4738731755653554;0;1,4738731755653554;-1,4463576397366253;0,43187353725737787;10,43733024079104;46,87643055513169;-15,533921323282572
11:54:31.705;0;Mov;1;11016;10,61;-1,1819697122867519;0;0;0,2440504255186239;-1,1819697122867519;-0,3062593522541734;12,359996337778863;47,090060121463665;11,474959562974945
11:54:31.705;0;Mov;1;11017;10,61;-1,6222174510559404;0;0;-0,3888058107242042;-1,6222174510559404;0,10527665326872311;13,428144169438765;61,9525742362743;14,465773491622668
11:54:31.705;0;Mov;1;11018;10,61;-0,9726127372814112;-1,057551829012421;0;-1,057551829012421;-0,9726127372814112;0,4665669728690451;9,12503433332316;74,46516312143315;16,17481002227851
11:54:31.706;0;Mov;1;11019;10,61;-1,2800683614612263;-0,9857722947248756;0;-0,9857722947248756;-1,2800683614612263;0,4845118564409314;4,8829615161595505;74,34308908352916;18,433179723502302
11:54:31.706;0;Mov;1;11020;10,61;0;-0,5455244963492233;0;-0,5455244963492233;0,23208716980403302;0,22012391408944212;1,098666341135899;69,79583117160558;17,94488357188635
11:54:31.732;0;Wrist;1;57370;10,03;0,6651570534951323;-0,8757103302293466;0,9845759929960021;-0,8757103302293466;0,6651570534951323;0,9845759929960021;0,3357036042359691;49,13480025635548;-16,75466170232246
11:54:31.732;0;Wrist;1;57371;10,03;0;0;1,031232714125492;-0,056227302603658026;-0,45938904328287605;1,031232714125492;1,1291848506118962;40,406506546220285;-13,58073671681875
11:54:31.732;0;Wrist;1;57372;10,03;0;0;0,7728263549264504;-0,00598162785729545;0,1794488357188635;0,7728263549264504;-0,45777764213995786;37,81243324076052;-10,193182164983062
11:54:31.732;0;Wrist;1;57373;10,03;0;0;0,9163854235015412;-0,3218115727618488;-0,20337534714804528;0,9163854235015412;-2,4414807580797753;32,685323648792995;-5,920590838343455
11:54:31.732;0;Wrist;1;57374;10,03;0;0;0,7895748771629993;-0,11125828112601856;-0,1292031646979049;0,7895748771629993;-7,629627368999298;27,37510299996948;-1,586962492751854
11:54:31.757;0;Wrist;1;57375;9,64;0;0;0,651997436445204;-0,236872466129223;0,04904935066506508;0,651997436445204;-11,505478072450941;22,766808069093905;1,5259254737998595
11:54:31.757;0;Wrist;1;57376;9,64;0;0;0;0,24524674214911343;0,28831446868228705;0,4091433573603015;-12,512588885158848;16,113773003326518;3,967406231879635
11:54:31.757;0;Wrist;1;57377;9,64;0;0;0;0,24046144582392345;0,16987822816686757;0,08254646592083881;-9,521774956511123;6,042664876247444;3,1434064760277107
11:54:31.757;0;Wrist;1;57378;9,64;0;0;0;-0,14595171673768578;-0,00837427881394343;0,27276224817461164;-9,949034089175084;0,7629627368999298;1,2512588885158848
11:54:31.757;0;Wrist;1;57379;9,64;0;-0,7500961452261422;0,5778252390934476;-0,7500961452261422;0,05503097852236053;0,5778252390934476;-10,98666341135899;0,3051850947599719;2,4414807580797753
11:54:31.780;0;Mov;1;11021;10,98;-0,9917539225821711;-0,5383465071565905;0;-0,5383465071565905;-0,9917539225821711;0,3828241828669088;3,47911008026368;83,89538254951628;22,705771050141912
11:54:31.781;0;Mov;1;11022;10,98;0;-0,6460158085879085;0,6328562511444441;-0,6460158085879085;-0,0705832102062479;0,6328562511444441;0,9155552842799157;86,61152989288003;21,668141727958005
11:54:31.781;0;Mov;1;11023;10,98;0;-1,311172802476577;1,3147618268761254;-1,311172802476577;-0,35291604358043155;1,3147618268761254;-0,3967406231879635;82,39997558519242;20,050660725730154
11:54:31.781;0;Mov;1;11024;10,98;0;-0,8948515155301066;0;-0,8948515155301066;-0,07656483806354335;0,12441786092190694;-3,8758507034516434;53,86516922513504;14,1300698873867
11:54:31.781;0;Mov;1;11025;10,98;0;-0,8900662490081485;0;-0,8900662490081485;-0,25720999786370435;0,1531296761270867;-4,211554307687613;54,292428357799004;8,880886257515183
11:54:31.781;0;Mov;1;11026;10,14;0;-1,001324574839015;0;-1,001324574839015;-0,3672719623592334;0,0346934430624752;-3,2349620044557024;49,77568895535142;4,516739402447585
11:54:31.781;0;Mov;1;11027;10,14;0;-0,8996368416585284;0;-0,8996368416585284;-0,3888058107242042;0,08135014183954131;-3,326517532883694;44,434949797051914;0,8545182653279214
11:54:31.782;0;Mov;1;11028;10,14;0;-0,783593249305704;0;-0,783593249305704;-0,49408247889454326;-0,2273018585772271;-3,2349620044557024;38,81954405346843;-0,8850367748039186
11:54:31.782;0;Mov;1;11029;10,14;-0,6053407749221777;-0,7381328895115512;0;-0,7381328895115512;-0,6053407749221777;-0,3014740559289834;-3,173924985503708;36,9579149754326;-1,6785180211798456
11:54:31.782;0;Mov;1;11030;10,14;-0,7608630992118595;-0,7417218543046358;0;-0,7417218543046358;-0,7608630992118595;-0,3780388865417188;-3,3875545518356884;34,7911008026368;-2,3194067201757864
11:54:31.817;0;Wrist;1;57380;9,8;0;0;0;-0,03708609495047418;0,2990813928647725;-0,17107455969897306;-8,117923520615253;8,392590105899227;9,735404522843105
11:54:31.817;0;Wrist;1;57381;9,8;0,5455244963492233;0;0;0,4139286536854915;0,5455244963492233;-0,23089083827192755;-5,188146610919523;0,5188146610919523;8,117923520615253
11:54:31.817;0;Wrist;1;57382;9,8;0;0;0;-0,31582994490455335;0,2548173646027253;-0,08852809377813425;-2,2278511917477952;-5,615405743583484;6,042664876247444
11:54:31.817;0;Wrist;1;57383;9,8;0,5538987276642658;0;0;0,03349711525577372;0,5538987276642658;-0,2703695851104007;0,15259254737998595;-7,354960783715323;6,256294442579424
11:54:31.817;0;Wrist;1;57384;9,8;0;0;0;-0,19021577480296487;0,2990813928647725;-0,1076693014313181;4,486220892971588;-11,902218695638904;4,760887478255562
11:54:31.840;0;Mov;1;11031;10,28;-0,7237769707327494;-0,8314462721640675;0;-0,8314462721640675;-0,7237769707327494;-0,4258919094000824;-3,9063692129276406;31,708731345561084;-2,1362956633198036
11:54:31.840;0;Mov;1;11032;10,28;-0,8876735859439375;-0,9427045979949339;-0,5897884948080385;-0,9427045979949339;-0,8876735859439375;-0,5897884948080385;-4,211554307687613;30,12176885280923;-0,8239997558519242
11:54:31.840;0;Mov;1;11033;10,28;-0,7895748771629993;-1,1951292697302163;-0,5670583447141941;-1,1951292697302163;-0,7895748771629993;-0,5670583447141941;-3,845332193975646;24,170659504989775;0
11:54:31.841;0;Mov;1;11034;10,28;-0,6292672863513596;-1,3949155924787133;-0,5144199957274087;-1,3949155924787133;-0,6292672863513596;-0,5144199957274087;-2,380443739127781;14,404736472670674;0,36622211371196634
11:54:31.842;0;Mov;1;11035;10,28;0;-2,0158085879085665;0;-2,0158085879085665;-0,363682967762917;-0,38043154960592973;-1,73955504013184;5,127109591967528;-0,15259254737998595
11:54:31.873;0;Mov;1;11036;10,01;0;-1,880623869861446;-1,6808374279000213;-1,880623869861446;-0,39837643317781607;-1,6808374279000213;-4,24207281716361;-10,589922788171025;-2,166814172795801
11:54:31.873;0;Mov;1;11037;10,01;-0,6711386813524277;-1,1652211304437392;-1,3219397564622943;-1,1652211304437392;-0,6711386813524277;-1,3219397564622943;-8,758812219611194;-27,008880886257515;-3,6011841181676685
11:54:31.873;0;Mov;1;11038;10,01;-0,6567827625736259;-0,9738090390102847;-1,1855586174733725;-0,9738090390102847;-0,6567827625736259;-1,1855586174733725;-12,329477828302865;-38,27021088290048;-3,662221137119663
11:54:31.873;0;Mov;1;11039;10,01;0;-0,8458021909428693;-1,1436872224723045;-0,8458021909428693;-0,0346934430624752;-1,1436872224723045;-15,2287362285226;-44,03820917386395;-3,845332193975646
11:54:31.873;0;Mov;1;11040;10,01;0;0;-1,1006195257423628;0,1507370279644917;0,30386668918996246;-1,1006195257423628;-17,548142948698384;-47,914059877315594;-6,19525742362743
11:54:31.885;0;Wrist;1;57385;10,06;0;-0,6795129126674703;0;-0,6795129126674703;0,290707131746498;0,43665883358256785;6,988738670003357;-16,75466170232246;5,249183629871517
11:54:31.885;0;Wrist;1;57386;10,06;0;-0,7907712384983367;0;-0,7907712384983367;-0,07536851398224585;-0,119632557145909;11,566515091402936;-21,912289803765983;8,545182653279214
11:54:31.885;0;Wrist;1;57387;10,06;0;0;0;-0,31104464857936337;-0,24524674214911343;-0,16987822816686757;13,672292245246743;-27,92443617053743;11,719107638782923
11:54:31.885;0;Wrist;1;57388;10,06;0;0;0;0,03349711525577372;-0,026319163317180778;-0,09929502541142765;12,359996337778863;-30,091250343333233;13,763847773674733
11:54:31.885;0;Wrist;1;57389;10,06;0;0,5861995300149541;0;0,5861995300149541;0,1890194432708594;-0,297885061332667;8,972441785943175;-30,12176885280923;13,733329264198737
11:54:31.907;0;Wrist;1;57390;9,71;0;1,7251015455717642;-0,5718436112361522;1,7251015455717642;0,2548173646027253;-0,5718436112361522;10,895107882930997;-31,678212836085084;12,085329752494888
11:54:31.907;0;Wrist;1;57391;9,71;0;1,822003893017365;0;1,822003893017365;-0,05144199882766007;-0,297885061332667;13,672292245246743;-26,581621753593556;11,53599658192694
11:54:31.907;0;Wrist;1;57392;9,71;0,7225806690038759;1,9081392864772484;0;1,9081392864772484;0,7225806690038759;-0,32300790429395426;9,979552598651082;-14,007995849482711;13,824884792626728
11:54:31.907;0;Wrist;1;57393;9,71;1,7274941490295115;1,2274300124744408;0;1,2274300124744408;1,7274941490295115;-0,15911130398438214;7,72118289742729;-4,608294930875576;9,308145390179144
11:54:31.907;0;Wrist;1;57394;9,71;1,6688741721854305;0,5945738209364605;0;0,5945738209364605;1,6688741721854305;0,1866267951082644;3,295999023407697;-2,838221381267739;-1,1597033600878932
11:54:31.960;0;Mov;1;11041;10,48;0;0,7596667378765221;0;0,7596667378765221;0,39837643317781607;0,031104465230476736;-14,740440076906644;-46,41865291299173;-8,819849238563188
11:54:31.960;0;Mov;1;11042;10,48;-1,0085025044251839;0;0;0,2464430736812189;-1,0085025044251839;0,417517618478576;-4,547257911923582;-40,98635822626423;-10,43733024079104
11:54:31.960;0;Mov;1;11043;10,48;-0,9654347480887784;0;0;-0,34813074725524157;-0,9654347480887784;0,2249092104146321;2,7771843623157446;-35,187841425824764;-9,857478560747094
11:54:31.960;0;Mov;1;11044;10,48;-0,7680410287980285;0;0;-0,2153386028626362;-0,7680410287980285;0,4498184208292642;5,584887234107486;-32,654805139317;-9,063997314371166
11:54:31.960;0;Mov;1;11045;10,48;-1,6377697311700796;0;0;-0,46417433960806603;-1,6377697311700796;0,2739585499034852;6,622516556291391;-28,809472945341348;-7,751701406903287
11:54:31.968;0;Wrist;1;57395;9,86;1,1520615730002746;0,7620594009407331;0,5586840537926878;0,7620594009407331;1,1520615730002746;0,5586840537926878;-2,380443739127781;-2,197332682271798;-9,979552598651082
11:54:31.968;0;Wrist;1;57396;9,86;1,1640248287148656;0;0;0,4701559674653615;1,1640248287148656;0,46297800807596057;-5,340739158299509;1,403851435895871;-17,029328287606432
11:54:31.968;0;Wrist;1;57397;9,86;0,7165990411465804;0;0,6185003323656423;0,20816065837485123;0,7165990411465804;0,6185003323656423;-6,0121463667714465;1,7700735496078372;-21,30191961424604
11:54:31.968;0;Wrist;1;57398;9,86;0;0;0,8852809228797266;-0,18782311173875393;0,2464430736812189;0,8852809228797266;-3,2349620044557024;0,24414807580797754;-20,691549424726098
11:54:31.968;0;Wrist;1;57399;9,86;0;0;1,0348216193121127;-0,2273018585772271;-0,0239265114291818;1,0348216193121127;1,403851435895871;-2,6551103244117558;-15,503402813806574
11:54:31.991;0;Mov;1;11046;10,22;-1,6078615918836023;0;0;-0,48331555471205784;-1,6078615918836023;0,43187353725737787;6,775109103671377;-25,025177770317697;-3,2349620044557024
11:54:31.991;0;Mov;1;11047;10,22;-1,3518478957487716;-0,6842982387958922;0;-0,6842982387958922;-1,3518478957487716;0,40316172950300605;6,256294442579424;-22,034363841669972;1,73955504013184
11:54:31.991;0;Mov;1;11048;10,22;-1,1484725486007263;-0,6101260414441358;0;-0,6101260414441358;-1,1484725486007263;0,3672719623592334;5,401776177251503;-21,485030671102024;5,249183629871517
11:54:31.991;0;Mov;1;11049;10,22;-0,937919271866512;0;0;-0,45221108389347514;-0,937919271866512;0,2823328408249916;4,66933194982757;-20,44740134891812;7,782219916379284
11:54:31.991;0;Mov;1;11050;10,22;-0,7309549599253823;-0,5000640769486069;0;-0,5000640769486069;-0,7309549599253823;0,2249092104146321;3,5096285897396773;-19,01303140354625;7,904293954283273
11:54:32.024;0;Mov;1;11051;10,03;0;-0,5850032282860805;0;-0,5850032282860805;-0,4665669728690451;0,05144199882766007;2,4414807580797753;-18,860438856166265;6,653035065767388
11:54:32.024;0;Mov;1;11052;10,03;0;-0,7536851100192267;0;-0,7536851100192267;-0,14595171673768578;-0,13039949623001038;1,73955504013184;-19,623401593066195;3,845332193975646
11:54:32.024;0;Mov;1;11053;10,03;0;-0,7022431223677785;0;-0,7022431223677785;-0,00598162785729545;-0,4928861473624378;1,7090365306558428;-22,980437635425886;0,5798516800439466
11:54:32.024;0;Mov;1;11054;10,03;0;-1,1759880844294566;0;-1,1759880844294566;0,01674855762788686;-0,11006195704472106;2,5025177770317697;-24,445326090273753;-3,326517532883694
11:54:32.025;0;Mov;1;11055;10,03;0;-1,6497329868846706;0;-1,6497329868846706;-0,12441786092190694;-0,04546037097036462;1,4648884548478653;-31,373027741325114;-7,751701406903287
11:54:32.031;0;Wrist;1;57400;10,02;0;0;1,0096988061540575;-0,2596026609279153;-0,22251656225203711;1,0096988061540575;7,080294198431349;-6,073183385723441;-8,606219672231209
11:54:32.032;0;Wrist;1;57401;10,02;0;0;0,7429182156399732;-0,39957273490668965;-0,25720999786370435;0,7429182156399732;11,047700430310984;-10,254219183935056;-1,9837031159398175
11:54:32.033;0;Wrist;1;57402;10,02;0;0;0;-0,21773125102523117;-0,13518479255520036;0,37684255500961333;12,451551866206854;-16,113773003326518;2,5940733054597613
11:54:32.033;0;Wrist;1;57403;10,02;0;0;0;0,22610554194673757;-0,12800683316579944;-0,20457167868015075;12,634662923062837;-22,095400860621968;5,401776177251503
11:54:32.033;0;Wrist;1;57404;10,02;0;0,5993591470648824;0;0,5993591470648824;0,0358897671437727;-0,44503312450407423;10,315256202887051;-25,33036286507767;5,066072573015534
11:54:32.058;0;Wrist;1;57405;9,76;-0,5861995300149541;0,6651570534951323;0;0,6651570534951323;-0,5861995300149541;-0,23328348643452254;6,775109103671377;-26,490066225165563;4,1810357982116155
11:54:32.058;0;Wrist;1;57406;9,76;0;0;0;0,21892758255733666;0,03230079117447623;0,3361674915406507;0,9155552842799157;-28,107547227393415;5,7374797814874725
11:54:32.058;0;Wrist;1;57407;9,76;0;0,7536851100192267;0;0,7536851100192267;0,09929502541142765;0,06220893046095347;-4,8829615161595505;-31,128879665517136;7,507553331095309
11:54:32.058;0;Wrist;1;57408;9,76;0;0,6017517505226295;0;0,6017517505226295;0,07895748622613834;0,07417218990094836;-8,178960539567248;-28,992584002197333;7,17184972685934
11:54:32.058;0;Wrist;1;57409;9,76;0;0,6555864012382885;0;0,6555864012382885;0,14475540010719626;0,052638326634361556;-9,460737937559129;-27,1614734336375;6,378368480483413
11:54:32.084;0;Mov;1;11056;10,13;0,6089297397152623;-1,0910489926984466;0;-1,0910489926984466;0,6089297397152623;0,04426404688906713;-0,12207403790398877;-40,13183996093631;-13,122959074678793
11:54:32.084;0;Mov;1;11057;10,13;0;-0,7823969475768303;0,5778252390934476;-0,7823969475768303;0,06460158234895245;0,5778252390934476;-0,8850367748039186;-43,76354258857997;-20,56947538682211
11:54:32.084;0;Mov;1;11058;10,13;-1,409271570863979;0;0;-0,019141209515885837;-1,409271570863979;-0,2560136663315989;0,061037018951994385;-48,738059633167516;-23,285622730185857
11:54:32.084;0;Mov;1;11059;10,13;-1,4786583824808497;0;0;0,1531296761270867;-1,4786583824808497;-0,15911130398438214;0,4272591326639607;-43,09213538010803;-18,89095736564226
11:54:32.084;0;Mov;1;11060;10,13;-0,9857722947248756;0;0;0,23328348643452254;-0,9857722947248756;-0,26438795725310527;-0,45777764213995786;-38,33124790185247;-13,153477584154789
11:54:32.117;0;Wrist;1;57410;9,87;0;0,9223670513588367;0;0,9223670513588367;-0,15671865582178715;-0,19739371929074984;-8,789330729087192;-25,788140507217626;6,805627613147374
11:54:32.117;0;Wrist;1;57411;9,87;0;1,1735953617587818;0;1,1735953617587818;0,16270028367908262;-0,13638112408730582;-8,209479049043244;-21,820734275337994;7,141331217383343
11:54:32.117;0;Wrist;1;57412;9,87;0;0,8266610056421094;0;0,8266610056421094;0,14236275194460127;-0,04187139500106815;-5,706961272011475;-17,181920834986418;4,4557023834955904
11:54:32.117;0;Wrist;1;57413;9,87;0;0,820679377784814;0;0,820679377784814;-0,06579790643024995;-0,2249092104146321;-2,5940733054597613;-13,306070131534776;3,814813684499649
11:54:32.117;0;Wrist;1;57414;9,87;0;0,9869685964537492;0;0,9869685964537492;0,1076693014313181;-0,3182226079687643;-0,9155552842799157;-9,949034089175084;3,814813684499649
11:54:32.142;0;Mov;1;11061;10,2;-0,6029481118579668;0,8015381328775902;0;0,8015381328775902;-0,6029481118579668;-0,3971801016457106;-0,7324442274239327;-30,732139042329173;-8,911404766991181
11:54:32.142;0;Mov;1;11062;10,2;-0,6591754256378368;0;0;0,47254860072634053;-0,6591754256378368;-0,41632131674970246;-0,3051850947599719;-20,41688283944212;-5,890072328867458
11:54:32.142;0;Mov;1;11063;10,2;0;0;0;0,13039949623001038;-0,47254860072634053;-0,16987822816686757;-0,24414807580797754;-11,719107638782923;-4,058961760307627
11:54:32.142;0;Mov;1;11064;10,2;0;0;0;0,02990813928647725;-0,3170262764366588;-0,2679769220461898;-1,2512588885158848;-9,460737937559129;-3,448591570787683
11:54:32.143;0;Mov;1;11065;10,2;0;0;0;-0,27635121296769616;-0,3194189395008698;-0,17107455969897306;-1,9531846064638203;-4,364146855067599;-3,2349620044557024
11:54:32.172;0;Mov;1;11066;10,01;0;0;0;-0,2942960965395825;-0,40316172950300605;-0,15671865582178715;-2,71614734336375;-3,5096285897396773;-3,021332438123722
11:54:32.174;0;Mov;1;11067;10,01;-0,5503097628711814;0;0;-0,34095278786584066;-0,5503097628711814;-0,23089083827192755;-2,9602954191717274;-2,6551103244117558;-2,9908139286477247
11:54:32.174;0;Mov;1;11068;10,01;-0,6328562511444441;0;0;-0,4773339268547624;-0,6328562511444441;-0,16628926337378308;-2,838221381267739;-1,3733329264198737;-2,6245918149357585
11:54:32.174;0;Mov;1;11069;10,01;-0,6842982387958922;0;0;-0,4294808741931669;-0,6842982387958922;-0,21174962316793572;-2,5940733054597613;-2,075258644367809;-2,2583697012237924
11:54:32.174;0;Mov;1;11070;10,01;-0,7249733320680868;0;0;-0,36009400296983246;-0,7249733320680868;-0,2596026609279153;-1,922666096987823;-2,044740134891812;-1,8921475875118259
11:54:32.178;0;Wrist;1;57415;9,97;0;0,9020295047227394;0;0,9020295047227394;0,33018586368335523;-0,27276224817461164;0,21362956633198035;-5,462813196203498;3,021332438123722
11:54:32.178;0;Wrist;1;57416;9,97;0;0,7225806690038759;0;0,7225806690038759;0,33018586368335523;-0,12322153684060945;0,8545182653279214;-1,403851435895871;1,4954069643238623
11:54:32.178;0;Wrist;1;57417;9,97;0;0,6089297397152623;0;0,6089297397152623;0,25362103307061984;-0,13638112408730582;0,9155552842799157;0,8545182653279214;0,3967406231879635
11:54:32.178;0;Wrist;1;57418;9,97;0;0,6591754256378368;0;0,6591754256378368;0,23328348643452254;-0,1794488357188635;0,7324442274239327;2,166814172795801;-0,18311105685598317
11:54:32.178;0;Wrist;1;57419;9,97;0;0,5132236939985351;0;0,5132236939985351;0,2703695851104007;-0,12681051653530992;0,6714072084719382;3,5401470992156745;-0,5493331705679495
11:54:32.207;0;Wrist;1;57420;9,8;0;0;0;0,3744499217486343;0,23328348643452254;-0,014355907602589877;0,18311105685598317;3,814813684499649;-0,793481246375927
11:54:32.208;0;Wrist;1;57421;9,8;0;0;0;0,4294808741931669;0,20935697500534073;0,04904935066506508;-0,27466658528397475;3,2349620044557024;-0,5188146610919523
11:54:32.208;0;Wrist;1;57422;9,8;0;0;0;0,49886777521973324;0,3194189395008698;0,00598162785729545;-0,061037018951994385;3,1128879665517135;-0,640888698995941
11:54:32.208;0;Wrist;1;57423;9,8;0;0;0;0,43546250205046233;0,2524247015385144;0,004785302378971459;-0,061037018951994385;3,204443494979705;-1,2512588885158848
11:54:32.208;0;Wrist;1;57424;9,8;0;0,5479170998069705;0;0,5479170998069705;0,15552232428968168;-0,1435590685750908;-0,36622211371196634;2,71614734336375;-1,6785180211798456
11:54:32.260;0;Mov;1;11071;10,34;-0,7321512616542558;0;0;-0,3349711600085452;-0,7321512616542558;-0,239265114291818;-1,1902218695638904;-1,3733329264198737;-1,1597033600878932
11:54:32.260;0;Mov;1;11072;10,34;-0,6819055757316813;0;0;-0,37205725868442335;-0,6819055757316813;-0,21414228623214668;-0,5188146610919523;-0,45777764213995786;-0,45777764213995786
11:54:32.260;0;Mov;1;11073;10,34;-0,595770122665334;0;0;-0,38043154960592973;-0,595770122665334;-0,20696432684274574;0;-0,24414807580797754;0
11:54:32.260;0;Mov;1;11074;10,34;-0,5778252390934476;0;0;-0,22849819010933256;-0,5778252390934476;-0,32540056735816525;0,3357036042359691;-0,45777764213995786;0,3051850947599719
11:54:32.260;0;Mov;1;11075;10,34;-0,5718436112361522;0;0;-0,2787438760319071;-0,5718436112361522;-0,19021577480296487;0,793481246375927;1,281777397991882;0,7019257179479355
11:54:32.270;0;Wrist;1;57425;9,91;0;0,7608630992118595;0;0,7608630992118595;0,16389660030957212;-0,1770561875562685;-0,7019257179479355;3,3875545518356884;-1,6479995117038484
11:54:32.270;0;Wrist;1;57426;9,91;0;0,644819506859035;0;0,644819506859035;0,2129459547000412;-0,02273018548518231;-0,8850367748039186;5,798516800439467;-1,8311105685598315
11:54:32.270;0;Wrist;1;57427;9,91;0;0;0;0,478530228583636;0,21174962316793572;0,10168767357402264;-0,6714072084719382;7,202368236335337;-2,2278511917477952
11:54:32.270;0;Wrist;1;57428;9,91;0;0;0;0,290707131746498;0,1387737722499008;0,21174962316793572;-0,3051850947599719;7,019257179479355;-2,6551103244117558
11:54:32.270;0;Wrist;1;57429;9,91;0;0;0;0,20935697500534073;0,11245460520731605;0,23089083827192755;0;5,859553819391461;-1,9837031159398175
11:54:32.291;0;Mov;1;11076;10,16;-0,5311685775704215;0;0;-0,39598377011360514;-0,5311685775704215;-0,16389660030957212;0,9155552842799157;2,3194067201757864;0,8850367748039186
11:54:32.291;0;Mov;1;11077;10,16;0;0;0;-0,42828457246429336;-0,4617816765438551;-0,08135014183954131;0,7324442274239327;2,533036286507767;0,8850367748039186
11:54:32.291;0;Mov;1;11078;10,16;-0,5192053218558306;0;0;-0,4928861473624378;-0,5192053218558306;-0,0466566987770661;0,24414807580797754;2,685628833887753;0,7324442274239327
11:54:32.291;0;Mov;1;11079;10,16;0;0;0;-0,473744932258446;-0,47254860072634053;-0,07656483806354335;-0,030518509475997192;2,2583697012237924;0,640888698995941
11:54:32.291;0;Mov;1;11080;10,16;-0,525186949713126;0;0;-0,47254860072634053;-0,525186949713126;-0,02990813928647725;-0,3051850947599719;2,166814172795801;0,3357036042359691
11:54:32.319;0;Mov;1;11081;9,98;-0,527579612777337;0;0;-0,44024782817888425;-0,527579612777337;-0,0837427900021363;-0,640888698995941;1,8005920590838342;0,18311105685598317
11:54:32.319;0;Mov;1;11082;9,98;-0,5168126587916196;0;0;-0,4390514966467788;-0,5168126587916196;-0,1315958128604999;-0,793481246375927;1,9531846064638203;-0,061037018951994385
11:54:32.319;0;Mov;1;11083;9,98;-0,5347575423635059;0;0;-0,38402051439901425;-0,5347575423635059;-0,11365092928861355;-1,0376293221839046;1,922666096987823;-0,12207403790398877
11:54:32.319;0;Mov;1;11084;9,98;-0,581414263492996;0;0;-0,39598377011360514;-0,581414263492996;-0,08852809377813425;-1,0681478316599018;2,2278511917477952;-0,12207403790398877
11:54:32.319;0;Mov;1;11085;9,98;-0,6041444135868405;0;0;-0,47494126379055146;-0,6041444135868405;-0,05144199882766007;-1,0071108127079074;2,9908139286477247;-0,09155552842799158
11:54:32.329;0;Wrist;1;57430;9,99;0;0;0;0,32300790429395426;0,11604358490201651;0,17107455969897306;-0,18311105685598317;4,394665364543596;-1,3122959074678793
11:54:32.329;0;Wrist;1;57431;9,99;0;0;0;0,4342662003215888;0,1411664204124958;0,12082888867801446;0,061037018951994385;3,845332193975646;-0,640888698995941
11:54:32.330;0;Wrist;1;57432;9,99;0;0;0;0,48331555471205784;0,12561418500320445;0,04904935066506508;0,3967406231879635;3,936887722403638;-0,24414807580797754
11:54:32.330;0;Wrist;1;57433;9,99;0;0;0;0,412732322153386;0,12082888867801446;0,10527665326872311;0,7019257179479355;4,272591326639607;0
11:54:32.330;0;Wrist;1;57434;9,99;0;0;0;0,4199102815427869;0,15552232428968168;0,11245460520731605;0,9155552842799157;4,119998779259621;0,4272591326639607
11:54:32.358;0;Wrist;1;57435;9,83;0;0;0;0,46417433960806603;0,21414228623214668;0,11484726082071901;1,1597033600878932;4,394665364543596;0,5798516800439466
11:54:32.358;0;Wrist;1;57436;9,83;0;0;0;0,3469344157231361;0,2524247015385144;0,1387737722499008;1,4648884548478653;4,821924497207556;0,061037018951994385
11:54:32.358;0;Wrist;1;57437;9,83;0;0;0;0,30386668918996246;0,1961974026602603;0,15193334459498123;1,403851435895871;4,058961760307627;0
11:54:32.360;0;Wrist;1;57438;9,83;0;0;0;0,37205725868442335;0,2739585499034852;0,07417218990094836;1,2512588885158848;2,9908139286477247;0,15259254737998595
11:54:32.360;0;Wrist;1;57439;9,83;0;0;0;0,39957273490668965;0,32061527103297527;0,05144199882766007;0,8850367748039186;2,3499252296517836;-0,21362956633198035
11:54:32.380;0;Mov;1;11086;10,07;-0,5598803555215613;0;0;-0,48331555471205784;-0,5598803555215613;-0,11365092928861355;-1,098666341135899;2,5025177770317697;-0,030518509475997192
11:54:32.381;0;Mov;1;11087;10,07;-0,5491134611423079;-0,5479170998069705;0;-0,5479170998069705;-0,5491134611423079;-0,10049134949272515;-1,1597033600878932;2,3194067201757864;0,030518509475997192
11:54:32.381;0;Mov;1;11088;10,07;-0,579021600428785;-0,5491134611423079;0;-0,5491134611423079;-0,579021600428785;-0,1064729773500206;-1,098666341135899;1,3733329264198737;-0,15259254737998595
11:54:32.381;0;Mov;1;11089;10,07;-0,6292672863513596;0;0;-0,4581927117507706;-0,6292672863513596;-0,15911130398438214;-0,6714072084719382;0,24414807580797754;-0,21362956633198035
11:54:32.381;0;Mov;1;11090;10,07;-0,6316598898091067;0;0;-0,47135229899746695;-0,6316598898091067;-0,11604358490201651;-0,3967406231879635;0,27466658528397475;-0,061037018951994385
11:54:32.417;0;Wrist;1;57440;9,9;0;0;0;0,29309976500747703;0,2715659166425062;0,11604358490201651;0,5798516800439466;1,8616290780358287;-0,7629627368999298
11:54:32.417;0;Wrist;1;57441;9,9;0;0;0;0,26438795725310527;0,24285409398651844;0,17585985602416304;0,5188146610919523;1,098666341135899;-1,0376293221839046
11:54:32.417;0;Wrist;1;57442;9,9;0;0;0;0,2548173646027253;0,23567614949873347;0,18064516725096896;0,3967406231879635;0,09155552842799158;-0,793481246375927
11:54:32.417;0;Wrist;1;57443;9,9;0;0;0;0,2440504255186239;0,22132023071993165;0,21174962316793572;0,030518509475997192;-0,9460737937559129;-0,7324442274239327
11:54:32.418;0;Wrist;1;57444;9,9;0;0;0;0,23567614949873347;0,19978636745334483;0,19021577480296487;0;-2,1057771538438064;-0,5493331705679495
11:54:32.470;0;Mov;1;11091;10,37;-0,5646656816499832;0;0;-0,4857081879730369;-0,5646656816499832;-0,10049134949272515;-0,061037018951994385;0,15259254737998595;0,061037018951994385
11:54:32.470;0;Mov;1;11092;10,37;-0,5168126587916196;-0,515616357062746;0;-0,515616357062746;-0,5168126587916196;-0,08015381775824382;0,061037018951994385;-0,24414807580797754;0,09155552842799158
11:54:32.470;0;Mov;1;11093;10,37;-0,5192053218558306;0;0;-0,478530228583636;-0,5192053218558306;-0,09211707347283471;0,18311105685598317;-1,403851435895871;-0,030518509475997192
11:54:32.470;0;Mov;1;11094;10,37;0;0;0;-0,4809228916478469;-0,49408247889454326;-0,07656483806354335;0,21362956633198035;-1,6785180211798456;-0,21362956633198035
11:54:32.470;0;Mov;1;11095;10,37;0;-0,5215979849200415;0;-0,5215979849200415;-0,4426404614398633;-0,06101260637965598;0,12207403790398877;-2,288888210699789;-0,36622211371196634
11:54:32.472;0;Mov;1;11096;10;0;0;0;-0,49168981583033233;-0,4306772057252724;-0,07536851398224585;-0,12207403790398877;-3,204443494979705;-0,7629627368999298
11:54:32.472;0;Mov;1;11097;10;0;0;0;-0,40435806103511157;-0,4390514966467788;-0,06220893046095347;-0,24414807580797754;-3,8758507034516434;-1,098666341135899
11:54:32.472;0;Mov;1;11098;10;0;0;0;-0,3816278513348033;-0,46417433960806603;-0,07536851398224585;-0,24414807580797754;-3,8758507034516434;-1,3733329264198737
11:54:32.472;0;Mov;1;11099;10;0;-0,5084383678701132;0;-0,5084383678701132;-0,478530228583636;-0,052638326634361556;-0,6103701895199438;-3,4180730613116856;-1,6174810022278512
11:54:32.472;0;Mov;1;11100;10;0;0;0;-0,48929718256935334;-0,46297800807596057;-0,056227302603658026;-1,0376293221839046;-4,333628345591602;-2,0142216254158147
11:54:32.496;0;Wrist;1;57445;10,12;0;0;0;0,3026703874610889;0,14595171673768578;0,1339884610230949;-0,12207403790398877;-3,448591570787683;-0,18311105685598317
11:54:32.496;0;Wrist;1;57446;10,12;0;0;0;0,36846829389133884;0,14595171673768578;0,1411664204124958;-0,061037018951994385;-4,0284432508316295;0,36622211371196634
11:54:32.496;0;Wrist;1;57447;10,12;0;0;0;0,39598377011360514;0,13518479255520036;0,12441786092190694;0,15259254737998595;-4,364146855067599;0,793481246375927
11:54:32.497;0;Wrist;1;57448;10,12;0;0;0;0,39119847378841516;0,12800683316579944;0,11125828112601856;0,21362956633198035;-4,394665364543596;1,098666341135899
11:54:32.497;0;Wrist;1;57449;10,12;0;0;0;0,3337748284764397;0,13039949623001038;0,1339884610230949;0,4882961516159551;-4,547257911923582;1,3733329264198737
11:54:32.533;0;Mov;1;11101;10,08;0;0;0;-0,42110661307489244;-0,4976714436876278;-0,0945097216354297;-0,9460737937559129;-5,249183629871517;-2,1362956633198036
11:54:32.533;0;Mov;1;11102;10,08;-0,5096347292054506;0;0;-0,4246955778679769;-0,5096347292054506;-0,1076693014313181;-0,9765923032319102;-5,249183629871517;-2,166814172795801
11:54:32.533;0;Mov;1;11103;10,08;-0,5263832514419996;-0,5144199957274087;0;-0,5144199957274087;-0,5263832514419996;-0,07297585836884289;-1,0376293221839046;-5,249183629871517;-2,044740134891812
11:54:32.533;0;Mov;1;11104;10,08;-0,5574877520638142;0;0;-0,49049348429822687;-0,5574877520638142;-0,07895748622613834;-1,2207403790398876;-6,2868129520554215;-1,9531846064638203
11:54:32.533;0;Mov;1;11105;10,08;-0,5311685775704215;0;0;-0,4510147523613697;-0,5311685775704215;-0,08733176969683676;-1,3122959074678793;-7,049775688955352;-2,075258644367809
11:54:32.559;0;Mov;1;11106;9,92;-0,5730399725714896;0;0;-0,41871395001068146;-0,5730399725714896;-0,10288399765532014;-1,1902218695638904;-7,477034821619312;-1,9531846064638203
11:54:32.559;0;Mov;1;11107;9,92;-0,5515061242065188;0;0;-0,3888058107242042;-0,5515061242065188;-0,13039949623001038;-1,098666341135899;-7,629627368999298;-1,7700735496078372
11:54:32.560;0;Mov;1;11108;9,92;-0,5204016235847041;0;0;-0,33975645633373514;-0,5204016235847041;-0,13039949623001038;-1,0376293221839046;-7,5685903500473035;-1,7090365306558428
11:54:32.560;0;Mov;1;11109;9,92;-0,5455244963492233;0;0;-0,36009400296983246;-0,5455244963492233;-0,16389660030957212;-1,0071108127079074;-7,141331217383343;-1,586962492751854
11:54:32.561;0;Mov;1;11110;9,92;-0,5072420661412397;0;0;-0,33975645633373514;-0,5072420661412397;-0,15552232428968168;-0,9460737937559129;-6,836146122623371;-1,4648884548478653
11:54:32.577;0;Wrist;1;57450;10,33;0;0;0;0,3289895321512497;0,16030763551648763;0,12082888867801446;0,36622211371196634;-4,943998535111545;1,8616290780358287
11:54:32.577;0;Wrist;1;57451;10,33;0;0;0;0,3935911070493942;0,19739371929074984;0,10527665326872311;0,15259254737998595;-5,371257667775506;2,1362956633198036
11:54:32.577;0;Wrist;1;57452;10,33;0;0;0;0,3923948053205206;0,23328348643452254;0,12441786092190694;0,21362956633198035;-5,462813196203498;2,1057771538438064
11:54:32.577;0;Wrist;1;57453;10,33;0;0;0;0,35650503817674795;0,18543046357615894;0,11365092928861355;0,15259254737998595;-5,7374797814874725;1,922666096987823
11:54:32.577;0;Wrist;1;57454;10,33;0;0;0;0,35770133990562153;0,19260842296555986;0,09092074194072924;0,09155552842799158;-6,469924008911405;2,075258644367809
11:54:32.577;0;Wrist;1;57455;9,98;0;0;0;0,42828457246429336;0,22012391408944212;0,05383465071565905;-0,21362956633198035;-6,988738670003357;2,288888210699789
11:54:32.577;0;Wrist;1;57456;9,98;0;0;0;0,4617816765438551;0,2249092104146321;0,00837427881394343;-0,21362956633198035;-6,95822016052736;2,0142216254158147
11:54:32.578;0;Wrist;1;57457;9,98;0;0,6065370766510514;0;0,6065370766510514;0,20217903051755579;-0,13638112408730582;-0,36622211371196634;-6,8666646320993685;1,8616290780358287
11:54:32.578;0;Wrist;1;57458;9,98;0;0,7560777730834376;0;0,7560777730834376;0,22969452164143803;-0,15791497245227668;-0,45777764213995786;-5,554368724631489;1,3428144169438765
11:54:32.578;0;Wrist;1;57459;9,98;0;0;0;0,4952788104266488;0,2703695851104007;-0,03230079117447623;-0,3967406231879635;-3,357036042359691;0,3967406231879635
11:54:32.620;0;Mov;1;11111;9,99;-0,5000640769486069;0;0;-0,2942960965395825;-0,5000640769486069;-0,15552232428968168;-0,8545182653279214;-6,469924008911405;-1,586962492751854
11:54:32.620;0;Mov;1;11112;9,99;-0,525186949713126;0;0;-0,3194189395008698;-0,525186949713126;-0,12202521275931195;-0,8545182653279214;-5,127109591967528;-1,586962492751854
11:54:32.620;0;Mov;1;11113;9,99;-0,541935471949675;0;0;-0,4617816765438551;-0,541935471949675;-0,0717795342875454;-0,5188146610919523;-4,547257911923582;-1,2512588885158848
11:54:32.620;0;Mov;1;11114;9,99;-0,5550950889996032;0;0;-0,3971801016457106;-0,5550950889996032;-0,1292031646979049;-0,3051850947599719;-5,371257667775506;-1,098666341135899
11:54:32.620;0;Mov;1;11115;9,99;-0,5634693799211097;0;0;-0,3182226079687643;-0,5634693799211097;-0,14954069643238624;-0,21362956633198035;-5,584887234107486;-1,0071108127079074
11:54:32.628;0;Wrist;1;57460;9,98;0;0;0;0,410339688892407;0,14714804826979125;0,07895748622613834;-0,5188146610919523;-2,838221381267739;0,27466658528397475
11:54:32.628;0;Wrist;1;57461;9,98;0;0;0;0,4665669728690451;0,1531296761270867;0,04306772280776963;-0,6103701895199438;-2,71614734336375;0,45777764213995786
11:54:32.628;0;Wrist;1;57462;9,98;0;0;0;0,4294808741931669;0,1818414838814585;0,05742363041035951;-0,4272591326639607;-2,3194067201757864;0,36622211371196634
11:54:32.628;0;Wrist;1;57463;9,98;0;0;0;0,3923948053205206;0,15671865582178715;0,08733176969683676;-0,3357036042359691;-2,2583697012237924;0,5493331705679495
11:54:32.628;0;Wrist;1;57464;9,98;0;0;0;0,3828241828669088;0,1961974026602603;0,07895748622613834;-0,3051850947599719;-2,5025177770317697;0,5188146610919523
11:54:32.658;0;Wrist;1;57465;9,86;0;0;0;0,38760947919209876;0,1985900508228553;0,052638326634361556;-0,5188146610919523;-2,7771843623157446;0,5493331705679495
11:54:32.658;0;Wrist;1;57466;9,86;0;0;0;0,4055543627639851;0,19260842296555986;0,07656483806354335;-0,640888698995941;-2,838221381267739;0,6103701895199438
11:54:32.658;0;Wrist;1;57467;9,86;0;0;0;0,41632131674970246;0,19739371929074984;0,08135014183954131;-0,6103701895199438;-2,9908139286477247;0,6714072084719382
11:54:32.658;0;Wrist;1;57468;9,86;0;0;0;0,40675069429609056;0,18782311173875393;0,06579790643024995;-0,640888698995941;-3,204443494979705;0,640888698995941
11:54:32.658;0;Wrist;1;57469;9,86;0;0;0;0,3947874385814997;0,1543260076591922;0,04904935066506508;-0,6103701895199438;-3,204443494979705;0,7019257179479355
11:54:32.680;0;Mov;1;11116;10,05;-0,5407391702208014;0;0;-0,32779320061914424;-0,5407391702208014;-0,1507370279644917;-0,15259254737998595;-4,8829615161595505;-0,8850367748039186
11:54:32.680;0;Mov;1;11117;10,05;-0,5108310309343241;0;0;-0,31104464857936337;-0,5108310309343241;-0,14954069643238624;-0,030518509475997192;-4,211554307687613;-0,6103701895199438
11:54:32.680;0;Mov;1;11118;10,05;-0,5515061242065188;0;0;-0,3170262764366588;-0,5515061242065188;-0,15671865582178715;0;-3,7232581560716573;-0,4882961516159551
11:54:32.680;0;Mov;1;11119;10,05;-0,5443281350138859;0;0;-0,33018586368335523;-0,5443281350138859;-0,14236275194460127;0,12207403790398877;-2,8992584002197335;-0,3051850947599719
11:54:32.680;0;Mov;1;11120;10,05;-0,5180089605204932;0;0;-0,34573808419103064;-0,5180089605204932;-0,13279214439260537;0,18311105685598317;-2,5025177770317697;-0,09155552842799158
11:54:32.709;0;Mov;1;11121;9,93;-0,5168126587916196;0;0;-0,3289895321512497;-0,5168126587916196;-0,15791497245227668;0,18311105685598317;-2,3194067201757864;0
11:54:32.709;0;Mov;1;11122;9,93;-0,5108310309343241;0;0;-0,290707131746498;-0,5108310309343241;-0,1674855800042726;0,18311105685598317;-1,7700735496078372;0,12207403790398877
11:54:32.709;0;Mov;1;11123;9,93;-0,5000640769486069;0;0;-0,30745568378627885;-0,5000640769486069;-0,15791497245227668;0,3357036042359691;-1,0071108127079074;0,27466658528397475
11:54:32.710;0;Mov;1;11124;9,93;0;0;0;-0,29549242807168796;-0,44024782817888425;-0,15791497245227668;0,3967406231879635;-0,3051850947599719;0,27466658528397475
11:54:32.710;0;Mov;1;11125;9,93;0;0;0;-0,1866267951082644;-0,4546037171544542;-0,2153386028626362;0,3357036042359691;0,12207403790398877;0,3051850947599719
11:54:32.719;0;Wrist;1;57470;9,93;0;0;0;0,4246955778679769;0,15791497245227668;0,03349711525577372;-0,7324442274239327;-3,47911008026368;0,8239997558519242
11:54:32.719;0;Wrist;1;57471;9,93;0;0;0;0,4546037171544542;0,16868191153637807;0,027515489261180266;-0,6714072084719382;-3,295999023407697;0,9155552842799157
11:54:32.719;0;Wrist;1;57472;9,93;0;0;0;0,43665883358256785;0,17107455969897306;0,04426404688906713;-0,640888698995941;-2,838221381267739;0,8850367748039186
11:54:32.719;0;Wrist;1;57473;9,93;0;0;0;0,44024782817888425;0,16628926337378308;0,05742363041035951;-0,6714072084719382;-2,410962248603778;0,8545182653279214
11:54:32.719;0;Wrist;1;57474;9,93;0;0;0;0,38760947919209876;0,19500107112815485;0,05742363041035951;-0,4272591326639607;-2,166814172795801;0,5493331705679495
11:54:32.747;0;Wrist;1;57475;9,8;0;0;0;0,4773339268547624;0,14475540010719626;0,00598162785729545;-0,36622211371196634;-2,3194067201757864;0,6714072084719382
11:54:32.747;0;Wrist;1;57476;9,8;0;0,522794286648915;0;0,522794286648915;0,17107455969897306;0,015552232615238368;-0,27466658528397475;-1,5259254737998595;0,6714072084719382
11:54:32.747;0;Wrist;1;57477;9,8;0;0;0;0,4306772057252724;0,21055330653744622;0,038282419031771674;-0,3051850947599719;-0,6714072084719382;0,18311105685598317
11:54:32.747;0;Wrist;1;57478;9,8;0;0;0;0,41632131674970246;0,15193334459498123;0,003588976900647469;-0,3051850947599719;-0,5493331705679495;0,18311105685598317
11:54:32.747;0;Wrist;1;57479;9,8;0;0,5096347292054506;0;0,5096347292054506;0,15193334459498123;0,00598162785729545;-0,3051850947599719;-0,3967406231879635;0,24414807580797754
11:54:32.771;0;Mov;1;11126;9,99;-0,5060457048059023;0;0;-0,2560136663315989;-0,5060457048059023;-0,12681051653530992;0,5798516800439466;1,8311105685598315;0,3357036042359691
11:54:32.771;0;Mov;1;11127;9,99;-0,5036531013481551;0;0;-0,32300790429395426;-0,5036531013481551;-0,17585985602416304;0,4882961516159551;2,8992584002197335;0,45777764213995786
11:54:32.771;0;Mov;1;11128;9,99;0;0;0;-0,31104464857936337;-0,4378551651146733;-0,14236275194460127;0,3967406231879635;3,295999023407697;0,6103701895199438
11:54:32.771;0;Mov;1;11129;9,99;-0,5120273326631978;0;0;-0,2775475444998016;-0,5120273326631978;-0,1435590685750908;0,45777764213995786;3,814813684499649;0,7019257179479355
11:54:32.771;0;Mov;1;11130;9,99;-0,5024567400128178;0;0;-0,3553087066446425;-0,5024567400128178;-0,07536851398224585;0,36622211371196634;4,760887478255562;0,9765923032319102
11:54:32.808;0;Wrist;1;57480;9,87;0;0;0;0,4007690664387951;0,23328348643452254;0,05503097852236053;-0,12207403790398877;0,24414807580797754;-0,18311105685598317
11:54:32.808;0;Wrist;1;57481;9,87;0;0;0;0,3553087066446425;0,16868191153637807;0,10168767357402264;-0,09155552842799158;0,27466658528397475;-0,15259254737998595
11:54:32.808;0;Wrist;1;57482;9,87;0;0;0;0,3505234103194525;0,17227089123107853;0,08733176969683676;0,18311105685598317;0,15259254737998595;0
11:54:32.808;0;Wrist;1;57483;9,87;0;0;0;0,29549242807168796;0,24165777735602892;0,1292031646979049;0,15259254737998595;-0,09155552842799158;-0,3051850947599719
11:54:32.808;0;Wrist;1;57484;9,87;0;0;0;0,290707131746498;0,1890194432708594;0,13518479255520036;0,27466658528397475;-1,403851435895871;0
11:54:32.830;0;Mov;1;11131;10,05;0;0;0;-0,4462294560361797;-0,473744932258446;-0,03947874311306917;0,3357036042359691;5,096591082491531;0,9460737937559129
11:54:32.830;0;Mov;1;11132;10,05;-0,5144199957274087;0;0;-0,4665669728690451;-0,5144199957274087;-0,05742363041035951;0,24414807580797754;4,4557023834955904;0,8545182653279214
11:54:32.830;0;Mov;1;11133;10,05;0;0;0;-0,4653706711401715;-0,4881008510372478;-0,0466566987770661;0,3357036042359691;3,9063692129276406;0,9155552842799157
11:54:32.830;0;Mov;1;11134;10,05;-0,5012604382839442;0;0;-0,49168981583033233;-0,5012604382839442;-0,04904935066506508;0,24414807580797754;3,326517532883694;0,8850367748039186
11:54:32.831;0;Mov;1;11135;10,05;0;0;0;-0,4964751121555223;-0,48331555471205784;-0,04187139500106815;0,36622211371196634;2,5025177770317697;0,8545182653279214
11:54:32.859;0;Mov;1;11136;9,93;0;0;0;-0,478530228583636;-0,4857081879730369;-0,027515489261180266;0,3357036042359691;1,7090365306558428;0,7019257179479355
11:54:32.860;0;Mov;1;11137;9,93;-0,5012604382839442;-0,5036531013481551;0;-0,5036531013481551;-0,5012604382839442;-0,004785302378971459;0,18311105685598317;0,8239997558519242;0,4272591326639607
11:54:32.861;0;Mov;1;11138;9,93;0;-0,5311685775704215;0;-0,5311685775704215;-0,47972656011574144;0,08613544561553926;0;0,15259254737998595;0,3967406231879635
11:54:32.861;0;Mov;1;11139;9,93;-0,5287759145062105;-0,5168126587916196;0;-0,5168126587916196;-0,5287759145062105;0,0346934430624752;-0,030518509475997192;-0,8239997558519242;0,5493331705679495
11:54:32.861;0;Mov;1;11140;9,93;-0,5204016235847041;-0,9092074343089084;0;-0,9092074343089084;-0,5204016235847041;0,29309976500747703;-0,36622211371196634;-0,6714072084719382;0,9155552842799157
11:54:32.898;0;Wrist;1;57485;10,11;0;0;0;0,3289895321512497;0,2129459547000412;0,06340525826765496;-0,061037018951994385;-2,288888210699789;-0,12207403790398877
11:54:32.899;0;Wrist;1;57486;10,11;0;0;0;0,297885061332667;0,15791497245227668;0,12322153684060945;-0,24414807580797754;-2,533036286507767;-0,030518509475997192
11:54:32.899;0;Wrist;1;57487;10,11;0;0;0;0,1411664204124958;0,2129459547000412;0,2679769220461898;-0,09155552842799158;-3,295999023407697;0,3051850947599719
11:54:32.899;0;Wrist;1;57488;10,11;0;0;0;0,11365092928861355;0,23806879766132846;0,2512283700064089;-0,21362956633198035;-6,256294442579424;0,640888698995941
11:54:32.899;0;Wrist;1;57489;10,11;0;0;0;0,026319163317180778;0,16987822816686757;0,33018586368335523;0,09155552842799158;-9,521774956511123;0,7629627368999298
11:54:32.900;0;Wrist;1;57490;9,83;0;0;0,710617413289285;-0,4569963802186651;0,236872466129223;0,710617413289285;0,3967406231879635;-14,221625415814692;1,1291848506118962
11:54:32.900;0;Wrist;1;57491;9,83;0;-0,9139927604373302;0,8146977499275185;-0,9139927604373302;0,4534073856223487;0,8146977499275185;0,27466658528397475;-25,605029450361645;2,288888210699789
11:54:32.900;0;Wrist;1;57492;9,83;0;-0,5850032282860805;0,7524888082903531;-0,5850032282860805;0,06340525826765496;0,7524888082903531;-0,7324442274239327;-41,99346903897214;4,66933194982757
11:54:32.900;0;Wrist;1;57493;9,83;0;-0,7883785754341258;1,0204657601397749;-0,7883785754341258;-0,13997008888039034;1,0204657601397749;-1,4954069643238623;-55,66576128421888;7,202368236335337
11:54:32.901;0;Wrist;1;57494;9,83;1,2070925254448073;-2,2778040311136203;1,6916043818857387;-2,2778040311136203;1,2070925254448073;1,6916043818857387;-5,523850215155492;-79,2260505996887;10,254219183935056
11:54:32.949;0;Mov;1;11141;10,15;-0,5861995300149541;-1,5444562889110995;0,6328562511444441;-1,5444562889110995;-0,5861995300149541;0,6328562511444441;-2,1362956633198036;-4,119998779259621;1,403851435895871
11:54:32.949;0;Mov;1;11142;10,15;0;-1,416449500450148;0;-1,416449500450148;-0,3947874385814997;0,4773339268547624;-4,791405987731559;-15,655995361186559;1,5564439832758568
11:54:32.949;0;Mov;1;11143;10,15;0;-1,4248237317651906;0,6639606921597949;-1,4248237317651906;-0,34454178246215705;0,6639606921597949;-8,087405011139255;-25,177770317697682;1,4343699453718681
11:54:32.950;0;Mov;1;11144;10,15;-0,5562913907284768;-1,4032899430066836;0,8027344942129276;-1,4032899430066836;-0,5562913907284768;0,8027344942129276;-13,641773735770744;-36,50013733329264;1,1597033600878932
11:54:32.950;0;Mov;1;11145;10,15;-0,5096347292054506;-0,8924589120723594;0;-0,8924589120723594;-0,5096347292054506;0,3708609271523179;-17,73125400555437;-48,615985595263524;0,18311105685598317
11:54:33.010;0;Mov;1;11146;10,21;0;0;0;-0,1315958128604999;-0,20816065837485123;0,2775475444998016;-17,700735496078373;-51,94250312814722;0
11:54:33.010;0;Mov;1;11147;10,21;-0,6232856584940641;0;0;0,10527665326872311;-0,6232856584940641;0,14475540010719626;-17,822809533982362;-55,116428113650926;1,6785180211798456
11:54:33.010;0;Mov;1;11148;10,21;-0,7764153197195349;-0,8972441785943175;1,1496688503296;-0,8972441785943175;-0,7764153197195349;1,1496688503296;-20,599993896298106;-58,41242713705863;4,4557023834955904
11:54:33.010;0;Mov;1;11149;10,21;0;-1,6892117784279916;1,8818201715903196;-1,6892117784279916;0,38760947919209876;1,8818201715903196;-27,100436414685507;-74,12945951719718;7,4159978026673175
11:54:33.010;0;Mov;1;11150;10,21;0;0;0;-0,026319163317180778;0,48929718256935334;0,3780388865417188;-35,12680440687277;-91,55552842799158;7,660145878475295
11:54:33.012;0;Mov;1;11151;9,95;0;0;0;0,08493911408343378;-0,4510147523613697;-0,2488357218438139;-32,13599047822505;-83,6512344737083;5,1576281014435255
11:54:33.012;0;Mov;1;11152;9,95;-0,769237330526902;0;0;-0,3182226079687643;-0,769237330526902;-0,05503097852236053;-29,419843134861292;-79,07345805230872;6,561479537339396
11:54:33.012;0;Mov;1;11153;9,95;-0,6723349830813014;-0,5861995300149541;0;-0,5861995300149541;-0,6723349830813014;-0,20457167868015075;-28,931546983245337;-72,20679342020935;4,486220892971588
11:54:33.012;0;Mov;1;11154;9,95;-0,8661397375789667;-0,7237769707327494;0,7931638419560839;-0,7237769707327494;-0,8661397375789667;0,7931638419560839;-29,084139530625325;-64,24146244697408;0,12207403790398877
11:54:33.012;0;Mov;1;11155;9,95;0;0;0;-0,34932707878734703;-0,47972656011574144;-0,0478530228583636;-26,062807092501604;-65,49272133548997;-1,9837031159398175
11:54:33.047;0;Wrist;1;57495;10,38;0,5144199957274087;-1,3733818037202064;1,4523392675939206;-1,3733818037202064;0,5144199957274087;1,4523392675939206;-12,17688528092288;-118,99166844691305;17,48710592974639
11:54:33.048;0;Wrist;1;57496;10,38;-0,8565691449285867;0;2,0505021725363934;-0,42349924633587144;-0,8565691449285867;2,0505021725363934;-24,68947416608173;-135,9904782250435;20,050660725730154
11:54:33.050;0;Wrist;1;57497;10,38;-0,8828882598155157;0;2,1174962614825894;0,1961974026602603;-0,8828882598155157;2,1174962614825894;-31,922360911893062;-146,7329935605945;14,801477095858639
11:54:33.050;0;Wrist;1;57498;10,38;0;0,6783166109385967;1,0862636665700247;0,6783166109385967;-0,13638112408730582;1,0862636665700247;-28,992584002197333;-142,88766136661886;10,864589373455
11:54:33.050;0;Wrist;1;57499;10,38;0;0,537150205427717;0,6280709250160222;0,537150205427717;-0,4546037171544542;0,6280709250160222;-24,445326090273753;-129,3679616687521;8,819849238563188
11:54:33.052;0;Wrist;1;57500;10,11;-1,477462080751976;1,1616321060441908;0;1,1616321060441908;-1,477462080751976;0,09211707347283471;-20,41688283944212;-120,7617419965209;3,204443494979705
11:54:33.052;0;Wrist;1;57501;10,11;0;1,5647938951536606;-0,8111087255279702;1,5647938951536606;0,23208716980403302;-0,8111087255279702;-7,93481246375927;-103,3356730857265;-0,5188146610919523
11:54:33.052;0;Wrist;1;57502;10,11;1,0479811767555773;0;-0,8517838188001648;0,3433454509300516;1,0479811767555773;-0,8517838188001648;3,6317026276436657;-88,0764183477279;-1,6174810022278512
11:54:33.052;0;Wrist;1;57503;10,11;0,5084383678701132;0,7823969475768303;-0,774022656655324;0,7823969475768303;0,5084383678701132;-0,774022656655324;1,9837031159398175;-80,08056886501663;-0,7324442274239327
11:54:33.052;0;Wrist;1;57504;10,11;0;0,8398205630855738;-1,1783806878872036;0,8398205630855738;-0,19978636745334483;-1,1783806878872036;3,357036042359691;-70,5893124179815;-0,9460737937559129
11:54:33.054;0;Wrist;1;57505;9,86;0;0,6041444135868405;0;0,6041444135868405;0,3888058107242042;-0,21892758255733666;2,9602954191717274;-63,661610766930146;-3,051850947599719
11:54:33.054;0;Wrist;1;57506;9,86;0,541935471949675;0;0;0,3062593522541734;0,541935471949675;-0,37564622347750787;0,8545182653279214;-58,35139011810663;-3,7232581560716573
11:54:33.054;0;Wrist;1;57507;9,86;0;0;0;0,4498184208292642;0,1543260076591922;-0,08493911408343378;-1,8311105685598315;-54,68916898098697;-4,303109836115604
11:54:33.054;0;Wrist;1;57508;9,86;0;0,6077333783799249;-0,5132236939985351;0,6077333783799249;-0,12441786092190694;-0,5132236939985351;-3,448591570787683;-50,53865169225135;-6,19525742362743
11:54:33.054;0;Wrist;1;57509;9,86;1,2202520828882717;0,6400341807306131;-1,104208550141911;0,6400341807306131;1,2202520828882717;-1,104208550141911;-0,4882961516159551;-44,12976470229194;-5,493331705679495
11:54:33.076;0;Mov;1;11156;10,03;-0,5766289373645741;0;-0,6292672863513596;-0,2895108002143925;-0,5766289373645741;-0,6292672863513596;-22,553178502761924;-61,9525742362743;-2,71614734336375
11:54:33.076;0;Mov;1;11157;10,03;-0,6173040306367688;0;-0,7572740748123111;-0,3971801016457106;-0,6173040306367688;-0,7572740748123111;-19,287697988830224;-55,23850215155492;-4,119998779259621
11:54:33.076;0;Mov;1;11158;10,03;0;0;0;-0,4091433573603015;-0,35650503817674795;-0,21892758255733666;-15,472884304330577;-47,8225043488876;-4,66933194982757
11:54:33.076;0;Mov;1;11159;10,03;0;0;-0,6304635880802332;-0,00837427881394343;-0,2548173646027253;-0,6304635880802332;-12,26844080935087;-45,411542100283825;-3,7842951750236518
11:54:33.076;0;Mov;1;11160;10,03;-0,6759239478743858;0;-1,4487502431943724;0,2942960965395825;-0,6759239478743858;-1,4487502431943724;-10,040589617603077;-39,91821039460433;-2,9297769096957307
11:54:33.107;0;Wrist;1;57510;9,89;1,3494552922910246;0,8218756795136876;-1,1783806878872036;0,8218756795136876;1,3494552922910246;-1,1783806878872036;-1,5564439832758568;-39,582506790368356;-2,8992584002197335
11:54:33.108;0;Wrist;1;57511;9,89;0,6316598898091067;0,7704336918622394;-0,827857307370983;0,7704336918622394;0,6316598898091067;-0,827857307370983;-3,051850947599719;-33,661915952024906;-0,6103701895199438
11:54:33.108;0;Wrist;1;57512;9,89;0;0;0;0,49886777521973324;0,25720999786370435;-0,29190343347537157;-2,9297769096957307;-28,68739890743736;-0,24414807580797754
11:54:33.108;0;Wrist;1;57513;9,89;0;0;-0,8087161220702231;0,38402051439901425;0,05383465071565905;-0,8087161220702231;-2,3194067201757864;-27,80236213263344;-0,4272591326639607
11:54:33.108;0;Wrist;1;57514;9,89;0;0,7656483657338176;-1,390130385563219;0,7656483657338176;0,007177953801294938;-1,390130385563219;-1,1902218695638904;-25,45243690298166;-0,5798516800439466
11:54:33.133;0;Mov;1;11161;10,06;-0,9247597144230476;0;-1,6030762657551805;0,35650503817674795;-0,9247597144230476;-1,6030762657551805;-7,690664387951292;-32,74636066774499;-2,8992584002197335
11:54:33.133;0;Mov;1;11162;10,06;-0,5168126587916196;0;-1,6963897080141606;0,2464430736812189;-0,5168126587916196;-1,6963897080141606;-4,974517044587542;-26,21539963988159;-3,5096285897396773
11:54:33.133;0;Mov;1;11163;10,06;0;0;-1,2836573858607745;0,2476394052133244;-0,13997008888039034;-1,2836573858607745;-2,4719992675557725;-19,5623645741142;-3,173924985503708
11:54:33.133;0;Mov;1;11164;10,06;0;0;-1,1006195257423628;0,1866267951082644;-0,1184362330646115;-1,1006195257423628;-1,0376293221839046;-13,428144169438765;-1,9531846064638203
11:54:33.133;0;Mov;1;11165;10,06;0;0;-1,0491775976973785;0,06220893046095347;-0,42349924633587144;-1,0491775976973785;-0,9765923032319102;-7,782219916379284;-1,2207403790398876
11:54:33.167;0;Wrist;1;57515;9,94;0;0,9917539225821711;-1,848323007904294;0,9917539225821711;0,15911130398438214;-1,848323007904294;0,640888698995941;-18,89095736564226;-0,8239997558519242
11:54:33.168;0;Wrist;1;57516;9,94;0;1,0611408534119693;-2,28857086588641;1,0611408534119693;0,20816065837485123;-2,28857086588641;2,9602954191717274;-10,193182164983062;-0,8239997558519242
11:54:33.168;0;Wrist;1;57517;9,94;0;0,9905576208532976;-2,00264914967803;0,9905576208532976;0,13279214439260537;-2,00264914967803;3,662221137119663;-1,586962492751854;-0,5798516800439466
11:54:33.168;0;Wrist;1;57518;9,94;0;0,7094210519539476;-1,116171805856502;0,7094210519539476;0,12082888867801446;-1,116171805856502;2,838221381267739;5,706961272011475;-0,5798516800439466
11:54:33.168;0;Wrist;1;57519;9,94;0;0;-0,7883785754341258;0,4091433573603015;-0,06460158234895245;-0,7883785754341258;2,563554795983764;10,071108127079073;-0,4272591326639607
11:54:33.198;0;Wrist;1;57520;9,85;0;0;0;0,410339688892407;-0,17585985602416304;-0,3337748284764397;2,7771843623157446;12,17688528092288;-0,6103701895199438
11:54:33.198;0;Wrist;1;57521;9,85;0;0;-0,532364879299295;0,43187353725737787;-0,1890194432708594;-0,532364879299295;2,9602954191717274;13,794366283150731;-1,281777397991882
11:54:33.198;0;Wrist;1;57522;9,85;0;0,5072420661412397;-0,7512924469550157;0,5072420661412397;0,0119632557145909;-0,7512924469550157;3,5706656086916717;15,991698965422529;-1,7090365306558428
11:54:33.198;0;Wrist;1;57523;9,85;0;0,5263832514419996;-0,6017517505226295;0,5263832514419996;0,23089083827192755;-0,6017517505226295;4,516739402447585;18,55525376140629;-1,7090365306558428
11:54:33.199;0;Wrist;1;57524;9,85;0;0,5084383678701132;0;0,5084383678701132;0,2464430736812189;-0,46058534501174964;4,150517288735618;20,29480880153813;-1,7090365306558428
11:54:33.223;0;Mov;1;11166;10,25;-0,5455244963492233;0;-0,930741342280343;0,0358897671437727;-0,5455244963492233;-0,930741342280343;-1,2512588885158848;-2,9602954191717274;-1,4648884548478653
11:54:33.223;0;Mov;1;11167;10,25;0;0;-0,6292672863513596;-0,03708609495047418;-0,3935911070493942;-0,6292672863513596;-1,8921475875118259;1,281777397991882;-1,7700735496078372
11:54:33.223;0;Mov;1;11168;10,25;0;0;0;-0,2129459547000412;-0,20935697500534073;-0,3780388865417188;-2,3194067201757864;4,699850459303567;-1,4343699453718681
11:54:33.223;0;Mov;1;11169;10,25;0;0;0;-0,2524247015385144;-0,19380473959604938;-0,14954069643238624;-2,563554795983764;6,469924008911405;-0,9460737937559129
11:54:33.223;0;Mov;1;11170;10,25;0;0;0;-0,23089083827192755;-0,358897671437727;-0,29549242807168796;-2,410962248603778;6,836146122623371;-0,15259254737998595
11:54:33.224;0;Mov;1;11171;10,01;-0,5383465071565905;0;-0,5479170998069705;-0,1914120914334544;-0,5383465071565905;-0,5479170998069705;-1,5564439832758568;7,507553331095309;0,45777764213995786
11:54:33.224;0;Mov;1;11172;10,01;-0,532364879299295;0;-0,7847896106410412;-0,11604358490201651;-0,532364879299295;-0,7847896106410412;-0,3967406231879635;8,819849238563188;0,45777764213995786
11:54:33.224;0;Mov;1;11173;10,01;0;0;-0,6292672863513596;-0,09690236979802469;-0,4857081879730369;-0,6292672863513596;0,8239997558519242;11,07821893978698;0,6714072084719382
11:54:33.224;0;Mov;1;11174;10,01;-0,5897884948080385;0;0;-0,2548173646027253;-0,5897884948080385;-0,20935697500534073;2,0142216254158147;13,214514603106783;1,0681478316599018
11:54:33.224;0;Mov;1;11175;10,01;-0,6101260414441358;0;0;-0,29190343347537157;-0,6101260414441358;-0,2524247015385144;3,326517532883694;14,374217963194678;1,2207403790398876
11:54:33.258;0;Wrist;1;57525;9,9;0;0,5287759145062105;-0,5921811578722496;0,5287759145062105;0,003588976900647469;-0,5921811578722496;3,5401470992156745;22,15643787957396;-1,73955504013184
11:54:33.258;0;Wrist;1;57526;9,9;0;0;0;0,39837643317781607;-0,07417218990094836;-0,3385601546048616;4,364146855067599;24,842066713461715;-2,288888210699789
11:54:33.258;0;Wrist;1;57527;9,9;0;0;0;0,2476394052133244;-0,03230079117447623;-0,09092074194072924;6,8666646320993685;27,466658528397474;-2,7466658528397474
11:54:33.258;0;Wrist;1;57528;9,9;0;0;0;0,39119847378841516;0,2751548814355907;0,3517197120483261;7,93481246375927;30,487990966521195;-1,8005920590838342
11:54:33.258;0;Wrist;1;57529;9,9;0,5359538440923796;0;0;0,24165777735602892;0,5359538440923796;0,05024567474636257;7,843256935331278;33,05154576250496;-0,6103701895199438
11:54:33.280;0;Mov;1;11176;10,04;-0,5000640769486069;0;0;-0,22371287888252664;-0,5000640769486069;-0,4007690664387951;4,333628345591602;15,717032380138553;1,0071108127079074
11:54:33.280;0;Mov;1;11177;10,04;0;0;0;-0,23089083827192755;-0,2739585499034852;-0,43187353725737787;4,7303689687795645;17,670216986602373;0,9765923032319102
11:54:33.281;0;Mov;1;11178;10,04;0;0;0;-0,45938904328287605;-0,1674855800042726;0,11006195704472106;4,1810357982116155;19,165623950926236;1,403851435895871
11:54:33.281;0;Mov;1;11179;10,04;0;-0,7465071804330576;0,7225806690038759;-0,7465071804330576;-0,19739371929074984;0,7225806690038759;4,974517044587542;19,867549668874172;1,3428144169438765
11:54:33.281;0;Mov;1;11180;10,04;0;-0,6962614945104831;0;-0,6962614945104831;-0,34454178246215705;0,412732322153386;5,401776177251503;18,463698232978302;1,1902218695638904
11:54:33.317;0;Wrist;1;57530;9,94;0;0;-0,5778252390934476;0,44144412990775783;0,3433454509300516;-0,5778252390934476;10,559404278695029;34,730063783684805;0,4272591326639607
11:54:33.317;0;Wrist;1;57531;9,94;0;0,7321512616542558;0;0,7321512616542558;0,1531296761270867;-0,47254860072634053;15,167699209570605;39,735099337748345;1,7700735496078372
11:54:33.317;0;Wrist;1;57532;9,94;0,5204016235847041;0;0,7500961452261422;0,2739585499034852;0,5204016235847041;0,7500961452261422;15,533921323282572;42,237617114780114;0,9765923032319102
11:54:33.317;0;Wrist;1;57533;9,94;0,5778252390934476;-0,5311685775704215;1,5707755230109561;-0,5311685775704215;0,5778252390934476;1,5707755230109561;10,498367259743034;36,50013733329264;-0,24414807580797754
11:54:33.317;0;Wrist;1;57534;9,94;0;0;1,4343943840220343;-0,473744932258446;0,09092074194072924;1,4343943840220343;8,972441785943175;28,90102847376934;-0,12207403790398877
11:54:33.340;0;Mov;1;11181;10,08;0;0;0;-0,41632131674970246;-0,4976714436876278;-0,11484726082071901;4,852443006683553;18,219550157170325;0,4882961516159551
11:54:33.341;0;Mov;1;11182;10,08;-0,5706473095072787;0;0;-0,4055543627639851;-0,5706473095072787;0,15552232428968168;4,303109836115604;19,531846064638202;-0,15259254737998595
11:54:33.341;0;Mov;1;11183;10,08;0;-0,5467207980780968;0;-0,5467207980780968;-0,358897671437727;0,18423414694566942;3,357036042359691;19,89806817835017;-0,061037018951994385
11:54:33.341;0;Mov;1;11184;10,08;0;-0,5586840537926878;0;-0,5586840537926878;-0,2440504255186239;0,26199529418889433;2,197332682271798;19,409772026734213;-0,3051850947599719
11:54:33.341;0;Mov;1;11185;10,08;0;0;0;-0,4881008510372478;-0,41153599062128055;0,12202521275931195;0,8850367748039186;18,524735251930295;-0,15259254737998595
11:54:33.348;0;Wrist;1;57535;9,86;0;0;0,7979491680845058;-0,06699423051154745;-0,14834437980189671;0,7979491680845058;8,667256691183203;22,461622974333935;-0,3051850947599719
11:54:33.348;0;Wrist;1;57536;9,86;0;0;0;0,2787438760319071;0,0598162785729545;0,2715659166425062;12,085329752494888;18,79940183721427;-2,8687398907437363
11:54:33.348;0;Wrist;1;57537;9,86;0;0;0;0,46297800807596057;0,29668875960379343;0,2249092104146321;7,538071840571306;14,801477095858639;-2,1057771538438064
11:54:33.348;0;Wrist;1;57538;9,86;0;0;0;0,10527665326872311;0,04904935066506508;0,41632131674970246;3,7842951750236518;11,53599658192694;-1,2512588885158848
11:54:33.348;0;Wrist;1;57539;9,86;0;0;0,5993591470648824;-0,04904935066506508;-0,20337534714804528;0,5993591470648824;4,24207281716361;8,636738181707205;-0,9155552842799157
11:54:33.374;0;Mov;1;11186;10,01;-0,6065370766510514;0;0;-0,4390514966467788;-0,6065370766510514;0,2548173646027253;0,18311105685598317;18,03643910031434;-0,24414807580797754
11:54:33.374;0;Mov;1;11187;10,01;0;0;0;-0,48211922317995237;-0,39598377011360514;0,29190343347537157;0,5798516800439466;15,472884304330577;-0,4882961516159551
11:54:33.374;0;Mov;1;11188;10,01;0;0;0;-0,49408247889454326;-0,28352917235709707;0,13279214439260537;0,8850367748039186;12,39051484725486;0,15259254737998595
11:54:33.374;0;Mov;1;11189;10,01;0;0;0;-0,39957273490668965;-0,3660756308271279;-0,09211707347283471;0,8545182653279214;11,047700430310984;0,24414807580797754
11:54:33.374;0;Mov;1;11190;10,01;0;0;0;-0,3194189395008698;-0,4928861473624378;-0,11245460520731605;0,8239997558519242;11,505478072450941;-0,15259254737998595
11:54:33.431;0;Mov;1;11191;10,04;0;-0,5407391702208014;0;-0,5407391702208014;-0,47254860072634053;0,1531296761270867;0,5493331705679495;11,719107638782923;0
11:54:33.431;0;Mov;1;11192;10,04;0;0;0;-0,47972656011574144;-0,37684255500961333;0,07895748622613834;0,3051850947599719;10,864589373455;0,030518509475997192
11:54:33.431;0;Mov;1;11193;10,04;0;0;0;-0,09929502541142765;-0,34095278786584066;-0,3469344157231361;0,5493331705679495;10,284737693411055;-0,27466658528397475
11:54:33.431;0;Mov;1;11194;10,04;0;0;0;-0,14834437980189671;-0,39957273490668965;-0,4773339268547624;1,6785180211798456;11,474959562974945;0,3357036042359691
11:54:33.431;0;Mov;1;11195;10,04;0;-0,6627643904309214;0;-0,6627643904309214;-0,3923948053205206;0,06460158234895245;2,8992584002197335;13,000885036774804;0,3357036042359691
11:54:33.492;0;Mov;1;11196;10,08;0;-0,654390099509415;0;-0,654390099509415;-0,06699423051154745;0,17466353939367352;2,563554795983764;12,146366771446882;-0,5493331705679495
11:54:33.492;0;Mov;1;11197;10,08;0;0;0;-0,0945097216354297;0,15552232428968168;-0,44024782817888425;2,1362956633198036;10,498367259743034;-1,403851435895871
11:54:33.492;0;Mov;1;11198;10,08;0;0;-0,9666311094241157;0,34932707878734703;-0,3146336431756798;-0,9666311094241157;3,5096285897396773;12,146366771446882;-1,8311105685598315
11:54:33.492;0;Mov;1;11199;10,08;-1,0443922715689566;0;-1,1999145958586384;0,24285409398651844;-1,0443922715689566;-1,1999145958586384;7,599108859523301;16,785180211798455;-1,73955504013184
11:54:33.492;0;Mov;1;11200;10,08;-1,2836573858607745;-0,6711386813524277;0;-0,6711386813524277;-1,2836573858607745;-0,15911130398438214;12,72621845149083;22,980437635425886;-1,73955504013184
11:54:33.498;0;Wrist;1;57540;10,3;0;0;0,5646656816499832;0,0358897671437727;-0,19021577480296487;0,5646656816499832;5,951109347819452;5,920590838343455;-0,27466658528397475
11:54:33.498;0;Wrist;1;57541;10,3;0;0;0;0,18543046357615894;0,0957060457167272;0,46297800807596057;7,782219916379284;3,7842951750236518;-0,15259254737998595
11:54:33.498;0;Wrist;1;57542;10,3;0;0;0;0,14954069643238624;0,29668875960379343;0,29190343347537157;7,9958494827112645;1,6479995117038484;-0,09155552842799158
11:54:33.498;0;Wrist;1;57543;10,3;0;0;0;0,30745568378627885;0,09211707347283471;0,0837427900021363;7,446516312143315;-0,7324442274239327;0,5493331705679495
11:54:33.498;0;Wrist;1;57544;10,3;0;0;0;0,4390514966467788;0,04904935066506508;-0,49408247889454326;6,561479537339396;-2,0142216254158147;0,5493331705679495
11:54:33.500;0;Wrist;1;57545;10,08;0;0;-0,515616357062746;0,37205725868442335;0,22610554194673757;-0,515616357062746;5,615405743583484;-0,4272591326639607;0,640888698995941
11:54:33.500;0;Wrist;1;57546;10,08;0;0;0;0,42828457246429336;0,18423414694566942;-0,43306986878948334;4,364146855067599;0,5493331705679495;1,7700735496078372
11:54:33.500;0;Wrist;1;57547;10,08;0;0,9845759929960021;-1,1341166894283883;0,9845759929960021;0,02990813928647725;-1,1341166894283883;2,6551103244117558;1,8311105685598315;2,71614734336375
11:54:33.500;0;Wrist;1;57548;10,08;0;0,6866909018601032;-1,0563555272835474;0,6866909018601032;0,4761375953226569;-1,0563555272835474;1,5564439832758568;7,812738425855281;1,73955504013184
11:54:33.500;0;Wrist;1;57549;10,08;0,8230719812425611;0;0;0,3780388865417188;0,8230719812425611;-0,4474257577650533;-1,8921475875118259;11,230811487166967;2,410962248603778
11:54:33.520;0;Mov;1;11201;10;-0,5215979849200415;-1,2669088040177618;0,9726127372814112;-1,2669088040177618;-0,5215979849200415;0,9726127372814112;14,89303262428663;21,33243812372204;-2,3194067201757864
11:54:33.522;0;Mov;1;11202;10;0;-0,6938688314462722;0,6149113675725577;-0,6938688314462722;0,40794702582819603;0,6149113675725577;12,26844080935087;14,1300698873867;-3,7537766655476545
11:54:33.522;0;Mov;1;11203;10;0;0;0;0,15552232428968168;0,33018586368335523;-0,16150395214697713;8,941923276467177;10,376293221839045;-3,814813684499649
11:54:33.522;0;Mov;1;11204;10;0;0,5718436112361522;-0,9391155735953856;0,5718436112361522;-0,45580004868655966;-0,9391155735953856;8,57570116275521;11,53599658192694;-2,5940733054597613
11:54:33.523;0;Mov;1;11205;10;-0,8505875170712912;0;-0,6926725297173986;-0,027515489261180266;-0,8505875170712912;-0,6926725297173986;10,98666341135899;17,334513382366406;-1,3428144169438765
11:54:33.528;0;Wrist;1;57550;9,99;0,9762017020744956;0;0;-0,14595171673768578;0,9762017020744956;0,4306772057252724;-5,523850215155492;10,773033845027008;3,1434064760277107
11:54:33.528;0;Wrist;1;57551;9,99;0;0;0,8123050868633076;-0,25720999786370435;0,4665669728690451;0,8123050868633076;-7,93481246375927;6,4394054994354075;4,577776421399578
11:54:33.528;0;Wrist;1;57552;9,99;0;0;0;0,3888058107242042;-0,2464430736812189;-0,025122837373181287;-8,514664143803216;1,8616290780358287;6,378368480483413
11:54:33.529;0;Wrist;1;57553;9,99;0;1,1472762468718527;-1,4008972203360088;1,1472762468718527;0,19260842296555986;-1,4008972203360088;-9,155552842799157;3,4180730613116856;5,890072328867458
11:54:33.529;0;Wrist;1;57554;9,99;1,2669088040177618;0,7477034821619312;-1,26212347788934;0,7477034821619312;1,2669088040177618;-1,26212347788934;-12,93984801782281;10,22370067445906;3,845332193975646
11:54:33.562;0;Wrist;1;57555;9,93;0,8900662490081485;0;0;0,14714804826979125;0,8900662490081485;-0,04546037097036462;-18,921475875118258;13,336588641010772;3,2349620044557024
11:54:33.562;0;Wrist;1;57556;9,93;-0,8314462721640675;0;0;0,3732535902165288;-0,8314462721640675;0,003588976900647469;-20,905178991058076;11,444441053498947;3,845332193975646
11:54:33.562;0;Wrist;1;57557;9,93;-1,5982909396267586;1,3099765007477036;-1,2130741533021028;1,3099765007477036;-1,5982909396267586;-1,2130741533021028;-17,456587420270395;12,695699942014832;3,051850947599719
11:54:33.562;0;Wrist;1;57558;9,93;-0,8565691449285867;1,8327708470030823;-2,1749199365977967;1,8327708470030823;-0,8565691449285867;-2,1749199365977967;-13,611255226294748;23,285622730185857;0,8850367748039186
11:54:33.563;0;Wrist;1;57559;9,93;0;1,3099765007477036;0,5670583447141941;1,3099765007477036;-0,0717795342875454;0,5670583447141941;-7,751701406903287;40,83376567888424;-2,1057771538438064
11:54:33.582;0;Mov;1;11206;10,04;-0,651997436445204;-0,8422132261497849;0;-0,8422132261497849;-0,651997436445204;0,32061527103297527;13,519699697866756;21,881771294289987;-1,1597033600878932
11:54:33.582;0;Mov;1;11207;10,04;0;0;-0,5144199957274087;-0,13638112408730582;-0,45938904328287605;-0,5144199957274087;16,357921079134496;15,198217719046601;-1,7700735496078372
11:54:33.582;0;Mov;1;11208;10,04;-0,9618457832956938;0,7393291912404248;-1,2908353154469436;0,7393291912404248;-0,9618457832956938;-1,2908353154469436;21,423993652150028;14,34369945371868;-0,640888698995941
11:54:33.582;0;Mov;1;11209;10,04;-0,7154026798112431;0;0;0,03349711525577372;-0,7154026798112431;0,16987822816686757;23,651844843897823;29,57243568224128;1,0071108127079074
11:54:33.582;0;Mov;1;11210;10,04;0;-0,7752189583841975;0,9893612595179602;-0,7752189583841975;0,13638112408730582;0,9893612595179602;20,783104953154087;31,342509231849117;3,051850947599719
11:54:33.609;0;Mov;1;11211;9,95;0;0;0;-0,46297800807596057;-0,1543260076591922;0,06460158234895245;17,029328287606432;20,844141972106083;5,127109591967528
11:54:33.610;0;Mov;1;11212;9,95;0;0;0;-0,2009826989854503;-0,3971801016457106;-0,2129459547000412;15,045625171666616;20,020142216254158;4,7303689687795645
11:54:33.610;0;Mov;1;11213;9,95;0;0;0;-0,234479817966628;-0,2512283700064089;-0,0933133975541322;14,648884548478652;24,384289071321756;4,058961760307627
11:54:33.611;0;Mov;1;11214;9,95;0;0;0;0,17107455969897306;-0,4390514966467788;-0,3971801016457106;14,984588152714622;21,51554918057802;4,66933194982757
11:54:33.611;0;Mov;1;11215;9,95;-0,5000640769486069;0,6567827625736259;-0,5993591470648824;0,6567827625736259;-0,5000640769486069;-0,5993591470648824;15,961180455946531;27,466658528397474;5,584887234107486
11:54:33.621;0;Wrist;1;57560;9,96;0;0;0,783593249305704;-0,05144199882766007;0,04426404688906713;0,783593249305704;-3,967406231879635;49,958800012207405;-4,119998779259621
11:54:33.621;0;Wrist;1;57561;9,96;0,8948515155301066;0;0;-0,1184362330646115;0,8948515155301066;0,3349711600085452;-8,606219672231209;48,64650410473953;-3,2654805139316996
11:54:33.621;0;Wrist;1;57562;9,96;0,701046820638905;0;0;0,48690451950514235;0,701046820638905;-0,3265968988902707;-13,58073671681875;45,625171666615806;-3,1434064760277107
11:54:33.621;0;Wrist;1;57563;9,96;0;1,5851313821832942;-0,7070284484962004;1,5851313821832942;-0,10288399765532014;-0,7070284484962004;-15,747550889614551;49,37894833216346;-4,577776421399578
11:54:33.621;0;Wrist;1;57564;9,96;0;1,3853450594347971;-0,947489864516892;1,3853450594347971;-0,1411664204124958;-0,947489864516892;-14,069032868434705;63,69212927640614;-8,667256691183203
11:54:33.647;0;Wrist;1;57565;9,81;0;1,8184148686178168;-0,8565691449285867;1,8184148686178168;0,37684255500961333;-0,8565691449285867;-13,519699697866756;76,32679219946898;-12,39051484725486
11:54:33.647;0;Wrist;1;57566;9,81;0;0,6316598898091067;0,5024567400128178;0,6316598898091067;-0,3971801016457106;0,5024567400128178;-7,843256935331278;90,94515823847163;-17,761772515030366
11:54:33.647;0;Wrist;1;57567;9,81;0;-0,6089297397152623;0,8804956563577685;-0,6089297397152623;0,10049134949272515;0,8804956563577685;-1,8616290780358287;92,83730582598346;-19,745475630970184
11:54:33.647;0;Wrist;1;57568;9,81;0;0;0;0,46058534501174964;0,1292031646979049;-0,47494126379055146;0,8850367748039186;83,98693807794427;-19,13510544145024
11:54:33.647;0;Wrist;1;57569;9,81;0;1,2752830353328044;0;1,2752830353328044;-0,33018586368335523;-0,36846829389133884;2,6245918149357585;86,27582628864407;-19,01303140354625
11:54:33.699;0;Mov;1;11216;9,83;-0,7465071804330576;0,9139927604373302;-1,0216620618686483;0,9139927604373302;-0,7465071804330576;-1,0216620618686483;19,13510544145024;38,880581072420426;7,93481246375927
11:54:33.700;0;Mov;1;11217;9,83;-0,6938688314462722;0;0;-0,33975645633373514;-0,6938688314462722;-0,25720999786370435;22,675252540665912;59,69420453505051;9,24710837122715
11:54:33.700;0;Mov;1;11218;9,83;0;0;0;-0,3313821952154607;-0,4773339268547624;-0,06579790643024995;22,339548936429946;58,77864925077059;9,735404522843105
11:54:33.700;0;Mov;1;11219;9,83;0;0;0;-0,10288399765532014;-0,06699423051154745;0,39119847378841516;20,56947538682211;48,982207708975494;8,301034577471237
11:54:33.700;0;Mov;1;11220;9,83;-0,7189917042107914;-1,9356548223059786;0,8996368416585284;-1,9356548223059786;-0,7189917042107914;0,8996368416585284;19,77599414044618;57,95464949491867;10,98666341135899
11:54:33.708;0;Wrist;1;57570;9,95;0,8828882598155157;-1,6222174510559404;1,8770348454618977;-1,6222174510559404;0,8828882598155157;1,8770348454618977;-0,5493331705679495;92,31849116489151;-18,18903164769433
11:54:33.708;0;Wrist;1;57571;9,95;0;-0,9534714923741875;0;-0,9534714923741875;0,18064516725096896;0,3098483170472579;-5,890072328867458;67,11020233771782;-14,831995605334635
11:54:33.708;0;Wrist;1;57572;9,95;-0,5048494030770287;0;0,5048494030770287;0,021533861403884816;-0,5048494030770287;0,5048494030770287;-6,74459059419538;55,51316873683889;-16,05273598437452
11:54:33.708;0;Wrist;1;57573;9,95;0;0;0,783593249305704;-0,3517197120483261;-0,0023926511894857296;0,783593249305704;-6,225775933103427;52,003540147099216;-15,472884304330577
11:54:33.708;0;Wrist;1;57574;9,95;0;0;0;-0,1543260076591922;0,47494126379055146;0,17825251908837397;0,36622211371196634;46,7238380077517;-12,756736960966826
11:54:33.730;0;Mov;1;11221;9,95;-0,6735312848101749;-0,9175817252304147;0;-0,9175817252304147;-0,6735312848101749;0,26199529418889433;15,137180700094607;35,950804162724694;11,810663167210913
11:54:33.730;0;Mov;1;11222;9,95;0;-0,5598803555215613;0;-0,5598803555215613;-0,4857081879730369;-0,3888058107242042;12,81777397991882;23,80443739127781;11,41392254402295
11:54:33.730;0;Mov;1;11223;9,95;-0,6005554487937559;-0,8661397375789667;0;-0,8661397375789667;-0,6005554487937559;0,3660756308271279;14,191106906338694;40,58961760307626;12,909329508346813
11:54:33.730;0;Mov;1;11224;9,95;0;0;0;-0,39598377011360514;-0,3660756308271279;0,19021577480296487;12,482070375682852;29,511398663289285;13,031403546250802
11:54:33.731;0;Mov;1;11225;9,95;0;0;-0,5048494030770287;-0,004785302378971459;-0,35291604358043155;-0,5048494030770287;11,474959562974945;20,32532731101413;13,122959074678793
11:54:33.767;0;Wrist;1;57575;9,96;0;0;0;0,3146336431756798;-0,14236275194460127;0,3134373116435743;7,904293954283273;43,27524643696402;-11,230811487166967
11:54:33.767;0;Wrist;1;57576;9,96;0;0;0;0,010766930701942408;0,03947874311306917;0,37205725868442335;9,33866389965514;44,03820917386395;-10,742515335551012
11:54:33.767;0;Wrist;1;57577;9,96;0;0;0;-0,239265114291818;0,3612903345019379;0,1914120914334544;7,507553331095309;41,13895077364422;-11,53599658192694
11:54:33.767;0;Wrist;1;57578;9,96;0;0;0;0,3744499217486343;0,2631916257209998;0,004785302378971459;5,920590838343455;36,255989257484664;-12,93984801782281
11:54:33.767;0;Wrist;1;57579;9,96;0,5060457048059023;0,6819055757316813;0;0,6819055757316813;0,5060457048059023;-0,22969452164143803;1,3733329264198737;35,187841425824764;-16,84621723075045
11:54:33.791;0;Mov;1;11226;9,97;-0,515616357062746;0;0;-0,21653493439474167;-0,515616357062746;-0,20816065837485123;12,634662923062837;36,164433729056675;14,984588152714622
11:54:33.791;0;Mov;1;11227;9,97;0;0;0;-0,48929718256935334;-0,3732535902165288;0,14834437980189671;12,93984801782281;43,54991302224799;16,96829126865444
11:54:33.793;0;Mov;1;11228;9,97;-0,5742362743003632;0;0;-0,20337534714804528;-0,5742362743003632;-0,05503097852236053;13,092440565202795;38,33124790185247;19,257179479354228
11:54:33.793;0;Mov;1;11229;9,97;-0,9319376440092166;0;0;-0,00837427881394343;-0,9319376440092166;-0,2273018585772271;13,824884792626728;43,45835749382;22,034363841669972
11:54:33.793;0;Mov;1;11230;9,97;-0,9953428873752556;0;0,5826105652218696;-0,2859218056180761;-0,9953428873752556;0,5826105652218696;15,076143681142613;48,76857814264351;24,01806695760979
11:54:33.798;0;Wrist;1;57580;9,72;0,6842982387958922;-0,5538987276642658;0,7225806690038759;-0,5538987276642658;0,6842982387958922;0,7225806690038759;-3,2349620044557024;31,586657307657095;-19,226660969878232
11:54:33.798;0;Wrist;1;57581;9,72;0;0;0;-0,117239908983314;0,0957060457167272;0,15791497245227668;0,7629627368999298;27,588732566301463;-16,937772759178443
11:54:33.798;0;Wrist;1;57582;9,72;0;0;0;0,3194189395008698;0,15791497245227668;-0,10527665326872311;-1,8616290780358287;23,743400372325816;-16,08325449385052
11:54:33.798;0;Wrist;1;57583;9,72;0;0;0;0,12800683316579944;-0,33975645633373514;-0,0023926511894857296;-5,21866512039552;21,820734275337994;-15,137180700094607
11:54:33.798;0;Wrist;1;57584;9,72;0;0;0;0,3265968988902707;-0,14714804826979125;0,04904935066506508;-14,55732902005066;20,172734763634143;-15,503402813806574
11:54:33.824;0;Mov;1;11231;9,98;-0,7584704361476485;-0,7070284484962004;0;-0,7070284484962004;-0,7584704361476485;0,05144199882766007;13,702810754722739;32,776879177220984;25,818659016693626
11:54:33.824;0;Mov;1;11232;9,98;-0,5503097628711814;-0,6627643904309214;0;-0,6627643904309214;-0,5503097628711814;0,12681051653530992;12,543107394634847;30,21332438123722;27,649769585253456
11:54:33.825;0;Mov;1;11233;9,98;0;-0,5754326356357006;0,532364879299295;-0,5754326356357006;0,1411664204124958;0,532364879299295;11,20029297769097;30,579546494949188;28,13806573686941
11:54:33.825;0;Mov;1;11234;9,98;-1,516940872295297;-0,8792992950224311;0;-0,8792992950224311;-1,516940872295297;-0,38043154960592973;11,932737205114902;31,067842646565143;29,938657795953247
11:54:33.825;0;Mov;1;11235;9,98;0,6196966340945158;0;0,5204016235847041;0,0705832102062479;0,6196966340945158;0,5204016235847041;8,636738181707205;29,908139286477248;26,39851069673757
11:54:33.880;0;Mov;1;11236;9,95;0;0;0;-0,058619954491657;0,01794488357188635;-0,117239908983314;8,362071596423231;32,71584215826899;20,813623462630087
11:54:33.880;0;Mov;1;11237;9,95;0;0;0;-0,4270882409321879;-0,18303781541356395;0,02990813928647725;9,308145390179144;36,43910031434065;16,144291512802514
11:54:33.880;0;Mov;1;11238;9,95;0;-0,5993591470648824;0;-0,5993591470648824;-0,2799401777607807;-0,234479817966628;10,589922788171025;34,882656331064794;13,397625659962767
11:54:33.880;0;Mov;1;11239;9,95;0;0;0;-0,38760947919209876;-0,4581927117507706;-0,363682967762917;12,756736960966826;32,47169408246101;12,298959318826869
11:54:33.880;0;Mov;1;11240;9,95;0;-0,7261696337969603;-0,6125187045083468;-0,7261696337969603;-0,4534073856223487;-0,6125187045083468;16,51051362651448;28,38221381267739;12,604144413586841
11:54:33.890;0;Wrist;1;57585;10,08;0,9331339457380902;1,320743454733421;0;1,320743454733421;0,9331339457380902;-0,4294808741931669;-20,966216010010072;17,822809533982362;-20,172734763634143
11:54:33.890;0;Wrist;1;57586;10,08;-1,3099765007477036;-1,3614185480056153;0,9534714923741875;-1,3614185480056153;-1,3099765007477036;0,9534714923741875;-11,383404034546952;17,91436506241035;-15,32029175695059
11:54:33.890;0;Wrist;1;57587;10,08;0;0,7560777730834376;0;0,7560777730834376;-0,38043154960592973;0,0119632557145909;-9,460737937559129;21,698660237434005;-8,453627124851222
11:54:33.890;0;Wrist;1;57588;10,08;0;0;0;0,3744499217486343;-0,4270882409321879;-0,00598162785729545;-8,728293710135198;18,55525376140629;-1,922666096987823
11:54:33.890;0;Wrist;1;57589;10,08;0;0;0;0,18782311173875393;0,07656483806354335;0,04426404688906713;-10,711996826075014;19,714957121494187;-1,6174810022278512
11:54:33.910;0;Mov;1;11241;9,93;0;-1,050373899426252;-0,5634693799211097;-1,050373899426252;-0,40675069429609056;-0,5634693799211097;19,043549913022247;23,102511673329875;13,428144169438765
11:54:33.910;0;Mov;1;11242;9,93;0;-0,8541764818643758;0;-0,8541764818643758;-0,33736382307275614;-0,2895108002143925;19,165623950926236;17,822809533982362;12,756736960966826
11:54:33.910;0;Mov;1;11243;9,93;0;0;0;-0,36846829389133884;-0,38043154960592973;0,03947874311306917;18,097476119266336;15,015106662190618;11,719107638782923
11:54:33.910;0;Mov;1;11244;9,93;0;0;0;-0,0119632557145909;-0,15671865582178715;0,2859218056180761;14,465773491622668;16,479995117038484;10,742515335551012
11:54:33.910;0;Mov;1;11245;9,93;0;0;0,5909848561433759;0,4294808741931669;0,05742363041035951;0,5909848561433759;9,33866389965514;24,262215033417768;8,911404766991181
11:54:33.977;0;Wrist;1;57590;10,19;0,6400341807306131;0,6316598898091067;0;0,6316598898091067;0,6400341807306131;-0,3361674915406507;-12,72621845149083;20,691549424726098;-3,6011841181676685
11:54:33.977;0;Wrist;1;57591;10,19;1,0384106437116611;0;0;-0,34573808419103064;1,0384106437116611;-0,08972441785943175;-11,017181920834986;23,621326334421827;-7,599108859523301
11:54:33.977;0;Wrist;1;57592;10,19;0,7022431223677785;-0,9319376440092166;0;-0,9319376440092166;0,7022431223677785;0,14236275194460127;-8,6977752006592;16,96829126865444;-10,284737693411055
11:54:33.978;0;Wrist;1;57593;10,19;0;0;0;-0,17107455969897306;0,1292031646979049;0,26199529418889433;-10,98666341135899;4,150517288735618;-11,474959562974945
11:54:33.978;0;Wrist;1;57594;10,19;0;0,595770122665334;0;0,595770122665334;0,10168767357402264;0,2895108002143925;-9,460737937559129;2,197332682271798;-9,918515579699088
11:54:33.979;0;Wrist;1;57595;9,96;0;0,5706473095072787;0,5455244963492233;0,5706473095072787;-0,2548173646027253;0,5455244963492233;-5,615405743583484;3,4180730613116856;-7,660145878475295
11:54:33.979;0;Wrist;1;57596;9,96;0;0;0,5455244963492233;0,4773339268547624;-0,17466353939367352;0,5455244963492233;-0,15259254737998595;5,249183629871517;-4,333628345591602
11:54:33.979;0;Wrist;1;57597;9,96;0;0,7333475633831293;0;0,7333475633831293;0,3218115727618488;0,2787438760319071;3,3875545518356884;5,401776177251503;-2,7771843623157446
11:54:33.979;0;Wrist;1;57598;9,96;0;0,6926725297173986;0;0,6926725297173986;0,4976714436876278;0,24165777735602892;5,462813196203498;6,95822016052736;-3,967406231879635
11:54:33.979;0;Wrist;1;57599;9,96;0,6149113675725577;0;0;0,38402051439901425;0,6149113675725577;0,3517197120483261;1,2207403790398876;9,67436750389111;-6,256294442579424
11:54:34.038;0;Mov;1;11246;9,36;0;0;0,5084383678701132;0,19500107112815485;0,1890194432708594;0,5084383678701132;3,0823694570757163;35,24887844477676;5,645924253059481
11:54:34.038;0;Mov;1;11247;9,36;0;0;0,6268746232871486;0,4199102815427869;0,010766930701942408;0,6268746232871486;-1,9531846064638203;44,83169042023987;2,410962248603778
11:54:34.038;0;Mov;1;11248;9,36;0;0;0,7716299935911131;0,41871395001068146;-0,4007690664387951;0,7716299935911131;-4,974517044587542;55,14694662312693;1,6785180211798456
11:54:34.038;0;Mov;1;11249;9,36;-0,5239905883777887;0;0,8852809228797266;0,06819056204365291;-0,5239905883777887;0,8852809228797266;-8,362071596423231;63,35642567217017;2,197332682271798
11:54:34.038;0;Mov;1;11250;9,36;-0,6639606921597949;0;1,1783806878872036;0,4055543627639851;-0,6639606921597949;1,1783806878872036;-8,301034577471237;73,48857081820124;5,188146610919523
11:54:34.061;0;Mov;1;11251;9,45;-0,835035236957152;1,4188421039078951;1,3733818037202064;1,4188421039078951;-0,835035236957152;1,3733818037202064;-8,758812219611194;83,13241981261635;7,629627368999298
11:54:34.061;0;Mov;1;11252;9,45;-0,7859859123699149;1,4666951267662587;1,5312967314676351;1,4666951267662587;-0,7859859123699149;1,5312967314676351;-0,8545182653279214;94,5463423566393;8,6977752006592
11:54:34.061;0;Mov;1;11253;9,45;-1,2346080612735375;2,0935697500534074;2,2287545873134555;2,0935697500534074;-1,2346080612735375;2,2287545873134555;27,1919919431135;107,76085695974609;9,063997314371166
11:54:34.061;0;Mov;1;11254;9,45;-2,26105533005768;2,2694295613727227;3,532749460203864;2,2694295613727227;-2,26105533005768;3,532749460203864;61,06753746147038;125,27848139896848;12,451551866206854
11:54:34.061;0;Mov;1;11255;9,45;-3,0410595549638355;2,713266443754387;4,470668851283303;2,713266443754387;-3,0410595549638355;4,470668851283303;92,13538010803552;150,39521469771415;15,686513870662557
11:54:34.063;0;Mov;1;11256;9,45;-2,062465428250984;3,6404187616351815;8,270198484756005;3,6404187616351815;-2,062465428250984;8,270198484756005;94,33271279030733;215,0639362773522;31,556138798181095
11:54:34.063;0;Mov;1;11257;9,45;-1,536082057596057;2,8508438844721824;16,443494979705193;2,8508438844721824;-1,536082057596057;16,443494979705193;64,02783288064211;315,89709158604694;49,958800012207405
11:54:34.063;0;Mov;1;11258;9,45;-5,262636093478195;2,591241283150731;20,585175252540665;2,591241283150731;-5,262636093478195;20,585175252540665;44,98428296761986;461,2262337107456;76,021607104709
11:54:34.063;0;Mov;1;11259;9,45;-5,627515392773217;3,8605428098391674;25,656397824030275;3,8605428098391674;-5,627515392773217;25,656397824030275;51,88146610919523;620,075075533311;113,80352183599354
11:54:34.063;0;Mov;1;11260;9,45;-5,385857913449507;-11,174877735221411;29,804059724723043;-11,174877735221411;-5,385857913449507;29,804059724723043;114,81063264870144;734,9772637104404;126,74336985381633
11:54:34.098;0;Wrist;1;57600;10,32;0;0;0,537150205427717;-0,03230079117447623;0,3337748284764397;0,537150205427717;-2,4719992675557725;11,62755211035493;-6,927701651051363
11:54:34.098;0;Wrist;1;57601;10,32;0;0,5515061242065188;0;0,5515061242065188;-0,019141209515885837;0,3289895321512497;-8,453627124851222;10,65095980712302;-5,096591082491531
11:54:34.098;0;Wrist;1;57602;10,32;0;0,930741342280343;0,635248914208655;0,930741342280343;0,11006195704472106;0,635248914208655;-15,289773247474594;13,550218207342754;-3,9979247413556322
11:54:34.098;0;Wrist;1;57603;10,32;0,5826105652218696;1,1448836434141056;0,5084383678701132;1,1448836434141056;0,5826105652218696;0,5084383678701132;-17,578661458174384;23,80443739127781;-2,807702871791742
11:54:34.099;0;Wrist;1;57604;10,32;0;1,4762657790231024;1,735868380344554;1,4762657790231024;0,40435806103511157;1,735868380344554;-21,790215765861994;32,624286629840995;-7,263405255287331
11:54:34.101;0;Wrist;1;57605;10,08;0,5060457048059023;2,460841652806177;1,2262337107455672;2,460841652806177;0,5060457048059023;1,2262337107455672;-23,25510422070986;65,279091769158;-8,57570116275521
11:54:34.101;0;Wrist;1;57606;10,08;0,5108310309343241;6,731724181340983;0,635248914208655;6,731724181340983;0,5108310309343241;0,635248914208655;-43,91613513595996;106,84530167546617;-12,146366771446882
11:54:34.101;0;Wrist;1;57607;10,08;2,84246965315714;2,8388806287575914;6,566630966368603;2,8388806287575914;2,84246965315714;6,566630966368603;-70,00946073793756;145,7869197668386;-14,313180944242683
11:54:34.101;0;Wrist;1;57608;10,08;1,8399487765892515;6,990130600146489;10,326682523575549;6,990130600146489;1,8399487765892515;10,326682523575549;-8,14844203009125;176,30542924283577;-19,5928830835902
11:54:34.101;0;Wrist;1;57609;10,08;-1,887801799447615;14,182439649647511;19,123264259773553;14,182439649647511;-1,887801799447615;19,123264259773553;86,58101138340403;287,75902584917753;-52,88857692190314
11:54:34.120;0;Mov;1;11261;9,67;-8,651826723532823;-22,78521645252846;30,859218115787225;-22,78521645252846;-8,651826723532823;30,859218115787225;230,81148716696677;658,0095828119755;77,76116214484085
11:54:34.120;0;Mov;1;11262;9,67;-11,640247810296945;-17,16607600634785;33,32125690481277;-17,16607600634785;-11,640247810296945;33,32125690481277;256,90481276894434;266,9759208960234;15,747550889614551
11:54:34.120;0;Mov;1;11263;9,67;-6,147917016357921;0;27,15659047212134;0,33736382307275614;-6,147917016357921;27,15659047212134;134,40351573229162;-14,1300698873867;-17,120883816034425
11:54:34.121;0;Mov;1;11264;9,67;-6,634821714682455;19,24409276100955;-7,6277719389935;19,24409276100955;-6,634821714682455;-7,6277719389935;41,35258033997619;-72,78664510025331;-33,05154576250496
11:54:34.121;0;Mov;1;11265;9,67;-9,407904675435653;26,40529915768914;-12,738474494155705;26,40529915768914;-9,407904675435653;-12,738474494155705;75,96057008575701;4,638813440351573;2,2278511917477952
11:54:34.164;0;Wrist;1;57610;9,86;4,419226565599536;10,31830805383465;13,906088824121829;10,31830805383465;4,419226565599536;13,906088824121829;174,74898525955993;496,96340830713825;-108,37122714926603
11:54:34.164;0;Wrist;1;57611;9,86;5,042512283700064;10,180730613116856;17,073959700308237;10,180730613116856;5,042512283700064;17,073959700308237;122,7149266029847;674,9168370616779;-174,9320963164159
11:54:34.164;0;Wrist;1;57612;9,86;5,3009187025055695;4,029224810785241;17,611108355967893;4,029224810785241;5,3009187025055695;17,611108355967893;47,27317117831965;852,4124881740776;-217,505417035432
11:54:34.164;0;Wrist;1;57613;9,86;24,041358302560504;-12,902371288186284;28,623285241248816;-12,902371288186284;24,041358302560504;28,623285241248816;-126,0414441358684;878,8109988708152;-185,9187597277749
11:54:34.164;0;Wrist;1;57614;9,86;38,14723273415326;-11,290920552690206;34,12399288918729;-11,290920552690206;38,14723273415326;34,12399288918729;-193,97564622943815;504,01318399609363;47,8225043488876
11:54:34.165;0;Wrist;1;57615;9,84;10,561161954100161;26,520146031067842;28,892458494827114;26,520146031067842;10,561161954100161;28,892458494827114;51,27109591967528;-42,237617114780114;149,41862239448224
11:54:34.165;0;Wrist;1;57616;9,84;-17,84798158207953;28,227301858577228;-2,4022217951750235;28,227301858577228;-17,84798158207953;-2,4022217951750235;106,14337595751823;-33,17361980040895;169,5913571581164
11:54:34.165;0;Wrist;1;57617;9,84;-30,58526108584857;32,166802728354746;0;32,166802728354746;-30,58526108584857;-0,05383465071565905;67,81212805566577;-3,5401470992156745;49,37894833216346
11:54:34.165;0;Wrist;1;57618;9,84;-13,636915570543534;32,1285210730308;31,62008270516068;32,1285210730308;-13,636915570543534;31,62008270516068;62,227240821558276;4,150517288735618;-84,47523422956023
11:54:34.165;0;Wrist;1;57619;9,84;3,273146858882412;28,738134022034362;33,582056642353585;28,738134022034362;3,273146858882412;33,582056642353585;124,17981505783257;-97,07937864314707;-136,11255226294747
11:54:34.180;0;Mov;1;11266;9,9;-14,299679364909817;23,926511429181797;19,3266396069216;23,926511429181797;-14,299679364909817;19,3266396069216;87,06930753501999;21,942808313241983;17,761772515030366
11:54:34.180;0;Mov;1;11267;9,9;-17,873104037598804;23,803291039765618;27,577698217719046;23,803291039765618;-17,873104037598804;27,577698217719046;27,1614734336375;-28,68739890743736;2,044740134891812
11:54:34.180;0;Mov;1;11268;9,9;-17,6481959746086;24,155009231849117;17,94488357188635;24,155009231849117;-17,6481959746086;17,94488357188635;-20,905178991058076;-123,41685232093265;-31,373027741325114
11:54:34.181;0;Mov;1;11269;9,9;-13,249305703909421;22,438282036805322;11,903439436017944;22,438282036805322;-13,249305703909421;11,903439436017944;-31,037324137089144;-184,33179723502303;-56,855983153782766
11:54:34.181;0;Mov;1;11270;9,9;-8,891091837824641;18,249946592608417;14,058022362437818;18,249946592608417;-8,891091837824641;14,058022362437818;-51,393169957579275;-222,41889706106753;-70,40620136112553
11:54:34.210;0;Mov;1;11271;9,72;-6,235249069185461;11,752702795495468;19,587439344462418;11,752702795495468;-6,235249069185461;19,587439344462418;-95,27878658406324;-271,0348826563311;-74,86190374462112
11:54:34.210;0;Mov;1;11272;9,72;-4,304379692220832;5,749540791802728;19,681949446089053;5,749540791802728;-4,304379692220832;19,681949446089053;-137,73003326517534;-339,67101046784876;-79,2260505996887
11:54:34.210;0;Mov;1;11273;9,72;-2,6797692800683617;1,7131382898571734;12,508780747398298;1,7131382898571734;-2,6797692800683617;12,508780747398298;-161,59550767540514;-408,03247169408246;-85,9401226844081
11:54:34.210;0;Mov;1;11274;9,72;-1,376970708906827;-1,7705618457594532;6,624054879909665;-1,7705618457594532;-1,376970708906827;6,624054879909665;-175,51194799645987;-453,2303842280343;-91,12826929532761
11:54:34.210;0;Mov;1;11275;9,72;-0,7656483657338176;-4,301986850337229;3,785174251152074;-4,301986850337229;-0,7656483657338176;3,785174251152074;-188,42127750480665;-477,2789696951201;-99,9786370433668
11:54:34.270;0;Mov;1;11276;9,95;-0,7405255525757622;-5,700491348002563;1,7346720786156804;-5,700491348002563;-0,7405255525757622;1,7346720786156804;-193,4263130588702;-492,4161503952147;-116,3975951414533
11:54:34.270;0;Mov;1;11277;9,95;0,515616357062746;-6,326169907986694;-2,5744925820947904;-6,326169907986694;0,515616357062746;-2,5744925820947904;-187,74987029633473;-496,84133426923427;-137,0281075472274
11:54:34.270;0;Mov;1;11278;9,95;3,201367324594867;-6,366844882045961;-8,490322771385845;-6,366844882045961;3,201367324594867;-8,490322771385845;-175,57298501541186;-481,5820795312357;-153,41654713583787
11:54:34.270;0;Mov;1;11279;9,95;5,943345725119785;-6,8633199942014835;-8,916214293343913;-6,8633199942014835;5,943345725119785;-8,916214293343913;-166,3258766441847;-453,96282845545824;-156,89565721610157
11:54:34.270;0;Mov;1;11280;9,95;7,922068124942778;-7,765349379711295;-7,461482779931028;-7,765349379711295;7,922068124942778;-7,461482779931028;-165,53239539780878;-426,43513290810876;-147,9537339396344
11:54:34.278;0;Wrist;1;57620;10,18;7,664858127079073;24,20166631061739;26,338303399761955;24,20166631061739;7,664858127079073;26,338303399761955;124,63759269997253;-213,87371440778833;-109,56144901882992
11:54:34.278;0;Wrist;1;57621;10,18;5,760307626575518;18,12911809137242;16,01162182988983;18,12911809137242;5,760307626575518;16,01162182988983;91,46397289956359;-276,40614032410656;-59,84679708243049
11:54:34.278;0;Wrist;1;57622;10,18;5,028156662953581;12,212091242713706;13,891732726523637;12,212091242713706;5,028156662953581;13,891732726523637;79,68382824182866;-312,0822779015473;-13,91644032105472
11:54:34.278;0;Wrist;1;57623;10,18;5,4863491660817285;6,02589209418012;14,178850863673818;6,02589209418012;5,4863491660817285;14,178850863673818;85,36027100436415;-345,46952726828823;30,793176061281166
11:54:34.278;0;Wrist;1;57624;10,18;5,404999217963194;0;11,400982696005126;-0,07536851398224585;5,404999217963194;11,400982696005126;85,26871547593616;-379,98596148564104;74,28205206457717
11:54:34.307;0;Wrist;1;57625;10,2;4,824781315805536;-5,243495265816217;5,6514419042023984;-5,243495265816217;4,824781315805536;5,6514419042023984;74,22101504562517;-405,7741019928587;112,82692953276162
11:54:34.307;0;Wrist;1;57626;10,2;4,139286477248451;-8,831275559251687;0;-8,831275559251687;4,139286477248451;-0,47254860072634053;59,26694540238655;-413,251136814478;145,32914212469862
11:54:34.307;0;Wrist;1;57627;10,2;4,18235429319132;-11,828071115756707;-1,3147618268761254;-11,828071115756707;4,18235429319132;-1,3147618268761254;44,068727683339944;-404,76699118015074;171,7886898403882
11:54:34.307;0;Wrist;1;57628;10,2;4,450331125827814;-14,294894634846035;1,3913266872920926;-14,294894634846035;4,450331125827814;1,3913266872920926;37,995544297616505;-404,58388012329476;197,14957121494186
11:54:34.307;0;Wrist;1;57629;10,2;3,836616298409986;-16,214997177037873;0,5897884948080385;-16,214997177037873;3,836616298409986;0,5897884948080385;46,479689931943724;-415,66209906308177;226,1116367076632
11:54:34.309;0;Wrist;1;57630;9,97;2,9202308153019807;-18,407862712485123;-1,7418500082018493;-18,407862712485123;2,9202308153019807;-1,7418500082018493;58,10724204229865;-422,34565263832513;255,13473921933652
11:54:34.309;0;Wrist;1;57631;9,97;2,110318451109348;-20,86391796624653;-3,6188848536637472;-20,86391796624653;2,110318451109348;-3,6188848536637472;62,92916653950621;-423,0475783562731;282,75399029511397
11:54:34.309;0;Wrist;1;57632;9,97;1,8889981011764885;-23,022089678640096;-3,974193739127781;-23,022089678640096;1,8889981011764885;-3,974193739127781;52,88857692190314;-425,3669850764489;306,64998321481977
11:54:34.309;0;Wrist;1;57633;9,97;-1,2788720597323526;-23,614270836512343;-10,059902111880856;-23,614270836512343;-1,2788720597323526;-10,059902111880856;31,586657307657095;-418,4087649159215;328,53175450910976
11:54:34.309;0;Wrist;1;57634;9,97;-7,16718659398175;-24,127494888149663;-18,48562387462996;-24,127494888149663;-7,16718659398175;-18,48562387462996;18,03643910031434;-382,97677541428874;331,8582720419935
11:54:34.335;0;Mov;1;11281;9,97;7,8801967299417095;-9,443794442579424;-6,723349711600085;-9,443794442579424;7,8801967299417095;-6,723349711600085;-164,58632160405287;-397,47306741538745;-132,14514603106784
11:54:34.335;0;Mov;1;11282;9,97;6,665926274910733;-11,109079828791161;-7,447126682332835;-11,109079828791161;6,665926274910733;-7,447126682332835;-153,2334360789819;-367,16818750572224;-117,25211340678122
11:54:34.335;0;Mov;1;11283;9,97;5,347575304422132;-12,663106173894468;-8,408972823267312;-12,663106173894468;5,347575304422132;-8,408972823267312;-124,63759269997253;-334,5744193853572;-106,26544999542223
11:54:34.335;0;Mov;1;11284;9,97;5,1944458220160525;-14,53176690725425;-6,79393282494583;-14,53176690725425;5,1944458220160525;-6,79393282494583;-100,58900723288674;-306,3753166295358;-96,7741935483871
11:54:34.335;0;Mov;1;11285;9,97;6,893228133487961;-15,406281472212898;-8,613544114505448;-15,406281472212898;6,893228133487961;-8,613544114505448;-94,85152745139928;-283,5474715414899;-94,97360148930326
11:54:34.341;0;Wrist;1;57635;9,83;-14,700449385052034;-24,054519409772027;-18,662678914761802;-24,054519409772027;-14,700449385052034;-18,662678914761802;30,4574724570452;-337,44315927610097;297,46391186254465
11:54:34.343;0;Wrist;1;57636;9,83;-16,828712958159123;-23,008930478835413;-13,950353061006501;-23,008930478835413;-16,828712958159123;-13,950353061006501;25,788140507217626;-302,62153996398814;236,21326334421826
11:54:34.343;0;Wrist;1;57637;9,83;-14,960051271095919;-24,022217474898525;-10,843495361186559;-24,022217474898525;-14,960051271095919;-10,843495361186559;20,203253273110143;-269,4479201635792;165,1966917935728
11:54:34.343;0;Wrist;1;57638;9,83;-13,08301702169866;-24,714890362254707;-9,37321085238197;-24,714890362254707;-13,08301702169866;-9,37321085238197;13,733329264198737;-249,61088900418105;94,14960173345133
11:54:34.343;0;Wrist;1;57639;9,83;-10,518094615009003;-25,17786759544664;-11,225122646259956;-25,17786759544664;-10,518094615009003;-11,225122646259956;-6,378368480483413;-232,97830133976257;35,9202856532487
11:54:34.360;0;Mov;1;11286;9,95;9,16385387737663;-15,961375965147862;-11,471566286202583;-15,961375965147862;9,16385387737663;-11,471566286202583;-103,48826563310648;-259,6819971312601;-87,13034455397198
11:54:34.361;0;Mov;1;11287;9,95;10,726255645924253;-16,832300790429397;-11,697671246986298;-16,832300790429397;10,726255645924253;-11,697671246986298;-109,43937498092593;-230,04852443006683;-65,98101748710593
11:54:34.361;0;Mov;1;11288;9,95;11,25024605548265;-17,70681440168462;-10,58149967955565;-17,70681440168462;11,25024605548265;-10,58149967955565;-103,3661915952025;-202,27668080690938;-39,85717337565233
11:54:34.361;0;Mov;1;11289;9,95;10,143644901882992;-18,606452375865963;-9,951035912656026;-18,606452375865963;10,143644901882992;-9,951035912656026;-83,6817529831843;-176,54957731864377;-17,365031891842403
11:54:34.361;0;Mov;1;11290;9,95;7,812005981627857;-19,5730822931608;-8,840845973082674;-19,5730822931608;7,812005981627857;-8,840845973082674;-52,980132450331126;-152,043214209418;-1,9531846064638203
11:54:34.398;0;Wrist;1;57640;9,97;-6,931510265663625;-25,546336634418775;-12,844947851496933;-25,546336634418775;-6,931510265663625;-12,844947851496933;-29,847102267525255;-204,84023560289316;-1,5564439832758568
11:54:34.399;0;Wrist;1;57641;9,97;-4,622601912747581;-25,55231826227607;-11,542148922696615;-25,55231826227607;-4,622601912747581;-11,542148922696615;-53,86516922513504;-171,97180089724418;-23,346659749137853
11:54:34.399;0;Wrist;1;57642;9,97;-4,059132950071718;-25,304679631946776;-11,635463080233162;-25,304679631946776;-4,059132950071718;-11,635463080233162;-73,61064485610522;-143,83373516037477;-40,2233954893643
11:54:34.400;0;Wrist;1;57643;9,97;-1,946421776291696;-25,104892117069003;-14,062807092501602;-25,104892117069003;-1,946421776291696;-14,062807092501602;-81,36234626300852;-111,60618915372173;-59,053315836054566
11:54:34.400;0;Wrist;1;57644;9,97;2,3567613757744073;-24,019825586718344;-15,137108218634602;-24,019825586718344;2,3567613757744073;-15,137108218634602;-83,89538254951628;-76,44886623737297;-72,42042298654134
11:54:34.421;0;Mov;1;11291;9,84;5,924204420606098;-20,276522492141485;-9,915146145512253;-20,276522492141485;5,924204420606098;-9,915146145512253;-23,621326334421827;-125,82781456953643;2,288888210699789
11:54:34.421;0;Mov;1;11292;9,84;5,174108096560564;-20,592352824488053;-13,34620864741966;-20,592352824488053;5,174108096560564;-13,34620864741966;-3,4180730613116856;-95,49241615039521;-0,4272591326639607
11:54:34.421;0;Mov;1;11293;9,84;4,438367870113224;-19,787224951933347;-15,676650669881283;-19,787224951933347;4,438367870113224;-15,676650669881283;10,040589617603077;-57,40531632435072;-2,807702871791742
11:54:34.421;0;Mov;1;11294;9,84;2,5194617488631854;-17,772612308114873;-12,338902325510421;-17,772612308114873;2,5194617488631854;-12,338902325510421;24,78102969450972;-19,226660969878232;-4,211554307687613
11:54:34.421;0;Mov;1;11295;9,84;0,5491134611423079;-13,84148686178167;-9,440205656605732;-13,84148686178167;0,5491134611423079;-9,440205656605732;36,255989257484664;7,232886745811334;-13,336588641010772
11:54:34.450;0;Mov;1;11296;9,84;-0,5311685775704215;-6,8633199942014835;-11,617518196661274;-6,8633199942014835;-0,5311685775704215;-11,617518196661274;45,07583849604785;21,240882595294046;-31,586657307657095
11:54:34.451;0;Mov;1;11297;9,84;0;-2,948942533646657;-13,802008308664204;-2,948942533646657;-0,10288399765532014;-13,802008308664204;50,355540635395364;29,87762077700125;-46,784875026703695
11:54:34.451;0;Mov;1;11298;9,84;14,237471198156681;-14,799744216742454;-39,201197088534194;-14,799744216742454;14,237471198156681;-39,201197088534194;58,290353099154636;206,457716605121;53,40739158299509
11:54:34.451;0;Mov;1;11299;9,84;-4,101004345072787;-19,516855754264963;-6,248408745841853;-19,516855754264963;-4,101004345072787;-6,248408745841853;159,8254341257973;544,6028015991699;178,68587298196357
11:54:34.451;0;Mov;1;11300;9,84;-12,909549813837092;-32,461100344859155;29,65571497238075;-32,461100344859155;-12,909549813837092;29,65571497238075;291,3296914578692;708,6703085421308;98,72737815485091
11:54:34.459;0;Wrist;1;57645;9,97;6,323777066103092;-22,07101084933012;-14,817689100314341;-22,07101084933012;6,323777066103092;-14,817689100314341;-80,53834650715659;-35,8897671437727;-66,53035065767388
11:54:34.460;0;Wrist;1;57646;9,97;6,196966460158086;-16,852639469588304;-17,88865703299051;-16,852639469588304;6,196966460158086;-17,88865703299051;-71,26071962645345;6,988738670003357;-37,324137089144564
11:54:34.460;0;Wrist;1;57647;9,97;3,611707043290506;-7,293997199926755;-17,17564737388226;-7,293997199926755;3,611707043290506;-17,17564737388226;-48,46339304788354;53,224280526139104;-4,913480025635548
11:54:34.460;0;Wrist;1;57648;9,97;-2,1832941679128393;0;-14,229096728415785;-0,20217903051755579;-2,1832941679128393;-14,229096728415785;-24,872585222937712;77,24234748374889;18,82992034669027
11:54:34.460;0;Wrist;1;57649;9,97;-21,506345942564167;12,715744880520035;-39,201197088534194;12,715744880520035;-21,506345942564167;-39,201197088534194;112,09448530533768;222,54097109897154;-60,67079683828242
11:54:34.487;0;Wrist;1;57650;9,82;27,08002525406659;7,125315198980682;-18,729672765282142;7,125315198980682;27,08002525406659;-18,729672765282142;170,7510605182043;524,0943632312998;-207,52586443678092
11:54:34.488;0;Wrist;1;57651;9,82;26,186370815149388;-18,84691343424787;29,79688215277566;-18,84691343424787;26,186370815149388;29,79688215277566;-32,898953215124976;847,956785790582;-131,6263313699759
11:54:34.488;0;Wrist;1;57652;9,82;-29,336296807763908;-31,955053865169226;26,581158253730887;-31,955053865169226;-29,336296807763908;26,581158253730887;-222,69356364635152;578,1731620227669;-99,76500747703483
11:54:34.488;0;Wrist;1;57653;9,82;-1,6042725674840541;0;-17,788165303506577;0,12561418500320445;-1,6042725674840541;-17,788165303506577;-5,462813196203498;148,8998077333903;-137,42484817041534
11:54:34.488;0;Wrist;1;57654;9,82;17,461567659535508;-11,146165540025025;0;-11,146165540025025;17,461567659535508;0,17227089123107853;-22,339548936429946;208,4719382305368;-49,53154087954344
11:54:34.511;0;Mov;1;11301;9,95;9,33014351329081;-38,45229575487533;29,520531327249977;-38,45229575487533;9,33014351329081;29,520531327249977;521,225623340556;544,9995422223578;132,17566454054383
11:54:34.511;0;Mov;1;11302;9,95;0;-14,008972441785943;3,5686392273476364;-14,008972441785943;-0,3947874385814997;3,5686392273476364;224,79934080019532;216,5288247322001;117,98455763420515
11:54:34.511;0;Mov;1;11303;9,95;21,97530480361339;7,441145054475539;-2,8245247695852536;7,441145054475539;21,97530480361339;-2,8245247695852536;55,14694662312693;176,67165135654776;21,118808557390057
11:54:34.511;0;Mov;1;11304;9,95;-12,124759666737877;-25,713822214423047;12,675069429609058;-25,713822214423047;-12,124759666737877;12,675069429609058;39,00265511032441;218,4209723197119;23,8959929197058
11:54:34.511;0;Mov;1;11305;9,95;-5,017389351329081;-11,367485770744956;5,367913029877621;-11,367485770744956;-5,017389351329081;5,367913029877621;76,54042176580096;52,58339182714316;13,550218207342754
11:54:34.549;0;Wrist;1;57655;9,97;-3,8665244376964627;-12,329331911679434;18,005895794549396;-12,329331911679434;-3,8665244376964627;18,005895794549396;-71,16916409802545;159,55076754051333;5,7374797814874725
11:54:34.549;0;Wrist;1;57656;9,97;-1,0372143419827875;1,9081392864772484;1,2094851289025543;1,9081392864772484;-1,0372143419827875;1,2094851289025543;-36,255989257484664;71,04709006012146;5,7374797814874725
11:54:34.549;0;Wrist;1;57657;9,97;0,874514028500473;-0,9367229701376385;3,7875668546098207;-0,9367229701376385;0,874514028500473;3,7875668546098207;-14,465773491622668;61,250648518326365;6,164738914151433
11:54:34.549;0;Wrist;1;57658;9,97;4,091433454390088;-1,548045313310648;1,26212347788934;-1,548045313310648;4,091433454390088;1,26212347788934;-1,0071108127079074;37,78191473128452;10,193182164983062
11:54:34.549;0;Wrist;1;57659;9,97;3,879683875927;-1,19632557145909;0;-1,19632557145909;3,879683875927;-0,236872466129223;-11,505478072450941;12,848292489394819;4,760887478255562
11:54:34.570;0;Mov;1;11306;9,94;12,298226874599445;8,33121166112247;0;8,33121166112247;12,298226874599445;0,4019653979709006;48,03613391521958;-20,75258644367809;1,3122959074678793
11:54:34.570;0;Mov;1;11307;9,94;-2,4405041657765434;0,8804956563577685;1,2800683614612263;0,8804956563577685;-2,4405041657765434;1,2800683614612263;-11,53599658192694;24,933622241889704;-6,134220404675435
11:54:34.570;0;Mov;1;11308;9,94;-5,951719718008972;-1,0946378978850673;-1,7083529637287516;-1,0946378978850673;-5,951719718008972;-1,7083529637287516;-13,794366283150731;30,671102023377177;-6,805627613147374
11:54:34.570;0;Mov;1;11309;9,94;-2,191668399227882;-3,360478673284097;1,203503501045259;-3,360478673284097;-2,191668399227882;1,203503501045259;12,421033356730858;21,576586199530016;2,6245918149357585
11:54:34.570;0;Mov;1;11310;9,94;1,4104678725928526;0;0,6974577962393567;0,08852809377813425;1,4104678725928526;0,6974577962393567;15,137180700094607;-2,075258644367809;0,27466658528397475
11:54:34.616;0;Wrist;1;57660;10;-2,9345866744743185;0;2,008630777535325;-0,4390514966467788;-2,9345866744743185;2,008630777535325;-15,411847285378583;-3,204443494979705;3,6317026276436657
11:54:34.616;0;Wrist;1;57661;10;1,516940872295297;1,482247406880398;-0,6735312848101749;1,482247406880398;1,516940872295297;-0,6735312848101749;-5,493331705679495;-7,5685903500473035;9,491256447035127
11:54:34.616;0;Wrist;1;57662;10;2,3292458399456772;2,0002563077944275;-1,076693014313181;2,0002563077944275;2,3292458399456772;-1,076693014313181;-12,909329508346813;-2,166814172795801;3,0823694570757163
11:54:34.616;0;Wrist;1;57663;10;0;0;1,8889981011764885;-0,10886562551261558;-0,2273018585772271;1,8889981011764885;-16,541032135990477;4,608294930875576;-8,087405011139255
11:54:34.617;0;Wrist;1;57664;10;-0,8804956563577685;-1,508566521767327;2,407007002090518;-1,508566521767327;-0,8804956563577685;2,407007002090518;-6,74459059419538;-2,380443739127781;-7,9958494827112645
11:54:34.630;0;Mov;1;11311;9,95;-0,8852809228797266;0,635248914208655;0;0,635248914208655;-0,8852809228797266;0,42110661307489244;4,974517044587542;1,586962492751854;-4,943998535111545
11:54:34.630;0;Mov;1;11312;9,95;-1,2669088040177618;0;0;-0,1292031646979049;-1,2669088040177618;0,17585985602416304;2,838221381267739;7,141331217383343;-3,845332193975646
11:54:34.630;0;Mov;1;11313;9,95;-0,820679377784814;-0,8218756795136876;0,5012604382839442;-0,8218756795136876;-0,820679377784814;0,5012604382839442;4,547257911923582;4,8829615161595505;-0,3967406231879635
11:54:34.630;0;Mov;1;11314;9,95;0;-0,5933775192075869;0;-0,5933775192075869;0,3218115727618488;0,48929718256935334;2,3194067201757864;-2,0142216254158147;0,7324442274239327
11:54:34.631;0;Mov;1;11315;9,95;1,1018158274712364;-0,947489864516892;0,6472121699232459;-0,947489864516892;1,1018158274712364;0,6472121699232459;-7,019257179479355;-4,821924497207556;-0,7629627368999298
11:54:34.638;0;Wrist;1;57665;9,84;0,6531937977805414;-1,833967148731956;1,5229225001525926;-1,833967148731956;0,6531937977805414;1,5229225001525926;3,0823694570757163;-15,961180455946531;0,8545182653279214
11:54:34.638;0;Wrist;1;57666;9,84;0,701046820638905;-1,892587125576037;2,070839659566027;-1,892587125576037;0,701046820638905;2,070839659566027;5,7374797814874725;-33,20413830988495;7,324442274239326
11:54:34.639;0;Wrist;1;57667;9,84;-1,4308053596224861;-0,5407391702208014;2,310104773857845;-0,5407391702208014;-1,4308053596224861;2,310104773857845;9,949034089175084;-50,59968871120334;9,765923032319101
11:54:34.639;0;Wrist;1;57668;9,84;-1,4056825464644307;0,7967528663556321;1,0479811767555773;0,7967528663556321;-1,4056825464644307;1,0479811767555773;14,67940305795465;-59,358500930814536;8,362071596423231
11:54:34.639;0;Wrist;1;57669;9,84;1,0120914096118045;0,7022431223677785;0;0,7022431223677785;1,0120914096118045;-0,3062593522541734;10,956144901882992;-59,69420453505051;4,760887478255562
11:54:34.690;0;Mov;1;11316;10,07;1,1341166894283883;-0,9427045979949339;0,8135013885921811;-0,9427045979949339;1,1341166894283883;0,8135013885921811;-19,34873500778222;-9,582811975463118;-5,4322946867275
11:54:34.691;0;Mov;1;11317;10,07;0;0;0,5873958913502915;-0,3421491193979461;0,3935911070493942;0,5873958913502915;-30,152287362285225;-13,794366283150731;-10,98666341135899
11:54:34.691;0;Mov;1;11318;10,07;0;0;0,5838068669507431;-0,3732535902165288;-0,4510147523613697;0,5838068669507431;-36,469618823816646;-13,031403546250802;-13,641773735770744
11:54:34.691;0;Mov;1;11319;10,07;-0,6196966340945158;-0,6196966340945158;0;-0,6196966340945158;-0,6196966340945158;0,2895108002143925;-38,33124790185247;-14,282662434766687;-14,1300698873867
11:54:34.691;0;Mov;1;11320;10,07;-0,5706473095072787;-0,6065370766510514;0;-0,6065370766510514;-0,5706473095072787;0,07297585836884289;-34,33332316049684;-19,287697988830224;-14,77095858638264
11:54:34.719;0;Mov;1;11321;9,84;-1,3949155924787133;-0,5299722162350841;0;-0,5299722162350841;-1,3949155924787133;0,08733176969683676;-25,605029450361645;-24,414807580797753;-15,2287362285226
11:54:34.719;0;Mov;1;11322;9,84;-1,5994873605685598;-1,1077974553285317;1,3279213843195898;-1,1077974553285317;-1,5994873605685598;1,3279213843195898;-17,853328043458358;-24,811548203985716;-15,778069399090548
11:54:34.719;0;Mov;1;11323;9,84;0;-1,0862636665700247;1,8889981011764885;-1,0862636665700247;-0,3062593522541734;1,8889981011764885;-18,463698232978302;-32,16650898770104;-16,113773003326518
11:54:34.720;0;Mov;1;11324;9,84;0;0;0;-0,2129459547000412;-0,4881008510372478;0,03349711525577372;-21,21036408581805;-44,86220892971587;-15,411847285378583
11:54:34.720;0;Mov;1;11325;9,84;-1,6939969853434858;0;-2,0158085879085665;0,14714804826979125;-1,6939969853434858;-2,0158085879085665;-14,618366039002655;-46,41865291299173;-15,167699209570605
11:54:34.754;0;Mov;1;11326;9,85;-0,9726127372814112;0,6364452159375286;-1,5659901968825343;0,6364452159375286;-0,9726127372814112;-1,5659901968825343;-2,288888210699789;-38,209173863948486;-15,076143681142613
11:54:34.754;0;Mov;1;11327;9,85;0;1,2334116403317361;-1,076693014313181;1,2334116403317361;-0,0478530228583636;-1,076693014313181;4,364146855067599;-32,80739768669698;-12,085329752494888
11:54:34.754;0;Mov;1;11328;9,85;-0,8099124237990967;0;0;0,12561418500320445;-0,8099124237990967;0,3780388865417188;5,523850215155492;-25,086214789269693;-6,95822016052736
11:54:34.754;0;Mov;1;11329;9,85;0;0;0;-0,26079899246002075;-0,363682967762917;-0,07656483806354335;3,814813684499649;-24,964140751365704;-5,615405743583484
11:54:34.754;0;Mov;1;11330;9,85;0,5598803555215613;0,6017517505226295;0;0,6017517505226295;0,5598803555215613;-0,4928861473624378;2,380443739127781;-25,025177770317697;-7,324442274239326
11:54:34.758;0;Wrist;1;57670;10,2;1,42123482657857;0;0,5694510077784051;-0,4510147523613697;1,42123482657857;0,5694510077784051;1,5564439832758568;-59,358500930814536;3,936887722403638
11:54:34.758;0;Wrist;1;57671;10,2;0;0;1,1412946190145574;-0,290707131746498;-0,08254646592083881;1,1412946190145574;-4,638813440351573;-65,43168431653798;4,364146855067599
11:54:34.758;0;Wrist;1;57672;10,2;0;0;1,0419995488982818;0,07417218990094836;0,08015381775824382;1,0419995488982818;-6,164738914151433;-67,75109103671377;4,760887478255562
11:54:34.758;0;Wrist;1;57673;10,2;0,9630420850245675;0;1,6784448244422743;0,0119632557145909;0,9630420850245675;1,6784448244422743;-6,256294442579424;-65,46220282601398;5,462813196203498
11:54:34.758;0;Wrist;1;57674;10,2;1,0479811767555773;0;1,0659260603274636;-0,2273018585772271;1,0479811767555773;1,0659260603274636;-4,1810357982116155;-63,72264778588214;5,401776177251503
11:54:34.759;0;Wrist;1;57675;9,96;0;0;-0,6208929954298532;0,3098483170472579;0,14954069643238624;-0,6208929954298532;-2,8992584002197335;-63,69212927640614;4,760887478255562
11:54:34.759;0;Wrist;1;57676;9,96;0;1,2752830353328044;-1,2908353154469436;1,2752830353328044;-0,00837427881394343;-1,2908353154469436;-4,394665364543596;-60,67079683828242;5,615405743583484
11:54:34.759;0;Wrist;1;57677;9,96;0;1,9476180780205694;-2,881948444700461;1,9476180780205694;0,3421491193979461;-2,881948444700461;-4,272591326639607;-52,980132450331126;9,7964415417951
11:54:34.759;0;Wrist;1;57678;9,96;0;2,3364238887447737;-3,6631488521225624;2,3364238887447737;0,3852168459311197;-3,6631488521225624;-4,8829615161595505;-40,89480269783624;13,855403302102726
11:54:34.759;0;Wrist;1;57679;9,96;0;1,9667592633213293;-2,074428683965575;1,9667592633213293;-0,0957060457167272;-2,074428683965575;-2,9297769096957307;-24,506363109225745;12,93984801782281
11:54:34.787;0;Wrist;1;57680;9,83;-1,3853450594347971;1,0826746421704765;-1,8160222651600695;1,0826746421704765;-1,3853450594347971;-1,8160222651600695;-0,8239997558519242;-12,329477828302865;10,711996826075014
11:54:34.787;0;Wrist;1;57681;9,83;-2,978850672933134;1,3183508512756736;-4,558000427259133;1,3183508512756736;-2,978850672933134;-4,558000427259133;0,6103701895199438;-8,02636799218726;7,9958494827112645
11:54:34.787;0;Wrist;1;57682;9,83;-3,629651926862392;2,6331126781517993;-7,637342829676198;2,6331126781517993;-3,629651926862392;-7,637342829676198;3,845332193975646;0,3051850947599719;3,204443494979705
11:54:34.787;0;Wrist;1;57683;9,83;-3,23247164639729;4,437171449171422;-11,046870708334605;4,437171449171422;-3,23247164639729;-11,046870708334605;9,613330484939116;20,630512405774102;-1,8921475875118259
11:54:34.787;0;Wrist;1;57684;9,83;2,6259346293527024;4,403674523911252;-4,018457499160741;4,403674523911252;2,6259346293527024;-4,018457499160741;23,46873378704184;61,52531510361034;-11,41392254402295
11:54:34.814;0;Mov;1;11331;9,98;0;1,4379834084215828;-1,9703482877208778;1,4379834084215828;0,42828457246429336;-1,9703482877208778;0,8850367748039186;-22,06488235114597;-7,812738425855281
11:54:34.814;0;Mov;1;11332;9,98;-0,9355266088023011;1,1520615730002746;-0,7859859123699149;1,1520615730002746;-0,9355266088023011;-0,7859859123699149;0,5188146610919523;-12,207403790398876;-6,317331461531419
11:54:34.814;0;Mov;1;11333;9,98;-0,9857722947248756;-0,6196966340945158;0,9929502243110446;-0,6196966340945158;-0,9857722947248756;0,9929502243110446;-4,791405987731559;-3,8758507034516434;-4,4557023834955904
