Frecuencia (Hz);100
time;timespan;canal;id;sample;gap;accX;accY;accZ;rawAccX;rawAccY;rawAccZ;rawGirX;rawGirY;rawGirZ
11:55:00.637;0;Mov;1;11511;12,54;0;0;0;-0,468959635933256;-0,32061527103297527;-0,13997008888039034;28,839991454817348;68,39197973570971;12,878810998870815
11:55:00.637;0;Mov;1;11512;12,54;0;0;0;-0,47972656011574144;-0,44383679297196876;0,08852809377813425;31,556138798181095;71,32175664540544;11,932737205114902
11:55:00.637;0;Mov;1;11513;12,54;0;-0,6890835649243141;-0,5263832514419996;-0,6890835649243141;-0,45580004868655966;-0,5263832514419996;33,11258278145695;71,7795342875454;10,589922788171025
11:55:00.638;0;Mov;1;11514;12,54;0;-0,9881649577890865;0;-0,9881649577890865;-0,24046144582392345;-0,473744932258446;29,57243568224128;67,59849848933378;10,193182164983062
11:55:00.638;0;Mov;1;11515;12,54;0;-1,0910489926984466;-0,5443281350138859;-1,0910489926984466;-0,37564622347750787;-0,5443281350138859;25,086214789269693;60,06042664876247;11,230811487166967
11:55:00.642;0;Wrist;1;57855;12,46;-1,7203162194433423;-0,7752189583841975;1,0001281538972138;-0,7752189583841975;-1,7203162194433423;1,0001281538972138;-14,831995605334635;4,8829615161595505;-9,643848994415112
11:55:00.642;0;Wrist;1;57856;12,46;-1,7334757768868068;0;0,5574877520638142;-0,3505234103194525;-1,7334757768868068;0,5574877520638142;-15,045625171666616;16,876735740226447;-2,1362956633198036
11:55:00.642;0;Wrist;1;57857;12,46;-1,616235823198645;0;0;0,00598162785729545;-1,616235823198645;0,32061527103297527;-15,564439832758568;17,365031891842403;-0,5798516800439466
11:55:00.642;0;Wrist;1;57858;12,46;-1,662892544328135;0;0,7345439247184667;-0,34573808419103064;-1,662892544328135;0,7345439247184667;-16,235847041230507;14,099551377910704;-0,8239997558519242
11:55:00.642;0;Wrist;1;57859;12,46;-1,555223242896817;0;0;0,00837427881394343;-1,555223242896817;0,0478530228583636;-14,740440076906644;18,433179723502302;2,288888210699789
11:55:00.644;0;Mov;1;11516;11,42;0;-1,1676137339014863;-0,7955565050202948;-1,1676137339014863;-0,3026703874610889;-0,7955565050202948;20,53895687734611;51,332132938627275;10,071108127079073
11:55:00.644;0;Mov;1;11517;11,42;0;-1,162828526985992;-0,6854945405247658;-1,162828526985992;-0,2273018585772271;-0,6854945405247658;16,449476607562488;43,305764946440014;8,667256691183203
11:55:00.644;0;Mov;1;11518;11,42;0;-1,2370006647312846;-0,8589617483863338;-1,2370006647312846;-0,32540056735816525;-0,8589617483863338;12,970366527298808;35,8592486342967;7,72118289742729
11:55:00.644;0;Mov;1;11519;11,42;0;-1,3099765007477036;-0,9917539225821711;-1,3099765007477036;-0,3864131774632252;-0,9917539225821711;10,101626636555071;27,649769585253456;6,591998046815394
11:55:00.644;0;Mov;1;11520;11,42;0;-1,2848536875896481;-1,003717178296762;-1,2848536875896481;-0,3923948053205206;-1,003717178296762;7,110812707907346;19,318216498306224;5,584887234107486
11:55:00.645;0;Wrist;1;57860;11,28;-1,6377697311700796;0;0;-0,10527665326872311;-1,6377697311700796;0,40435806103511157;-15,381328775902585;13,91644032105472;2,8992584002197335
11:55:00.645;0;Wrist;1;57861;11,28;-1,5468490115817743;0;0;-0,031104465230476736;-1,5468490115817743;0,07536851398224585;-14,191106906338694;14,160588396862698;3,9979247413556322
11:55:00.645;0;Wrist;1;57862;11,28;-1,5061739183095797;0;0;-0,2273018585772271;-1,5061739183095797;0,31224098011146884;-13,855403302102726;11,658070619830928;3,936887722403638
11:55:00.645;0;Wrist;1;57863;11,28;-1,4786583824808497;0;0;-0,33736382307275614;-1,4786583824808497;0,24046144582392345;-11,719107638782923;10,162663655507066;4,760887478255562
11:55:00.645;0;Wrist;1;57864;11,28;-1,4654988250373853;0;0;-0,26199529418889433;-1,4654988250373853;-0,010766930701942408;-8,301034577471237;9,094515823847164;4,699850459303567
11:55:00.646;0;Mov;1;11521;10,42;0;-1,2980132450331126;-0,9762017020744956;-1,2980132450331126;-0,3385601546048616;-0,9762017020744956;4,150517288735618;11,261329996642964;4,821924497207556
11:55:00.646;0;Mov;1;11522;10,42;0;-1,27049782841731;-0,8924589120723594;-1,27049782841731;-0,3505234103194525;-0,8924589120723594;1,2512588885158848;3,7232581560716573;3,69273964659566
11:55:00.646;0;Mov;1;11523;10,42;0;-1,2214483846171453;-0,8123050868633076;-1,2214483846171453;-0,3864131774632252;-0,8123050868633076;-1,6785180211798456;-3,3875545518356884;2,410962248603778
11:55:00.646;0;Mov;1;11524;10,42;0;-1,2597308744315927;-0,6412305420659505;-1,2597308744315927;-0,36487929929502244;-0,6412305420659505;-5,371257667775506;-9,918515579699088;1,0376293221839046
11:55:00.646;0;Mov;1;11525;10,42;0;-1,3374920365764336;0;-1,3374920365764336;-0,22012391408944212;-0,20217903051755579;-9,735404522843105;-15,44236579485458;-0,6714072084719382
11:55:00.648;0;Wrist;1;57865;10,31;-1,4403760118793298;0;0;-0,4342662003215888;-1,4403760118793298;0,14236275194460127;-7,202368236335337;5,981627857295449;4,303109836115604
11:55:00.648;0;Wrist;1;57866;10,31;-1,4511429658650472;0;0;-0,12202521275931195;-1,4511429658650472;0,0837427900021363;-7,049775688955352;1,73955504013184;3,845332193975646
11:55:00.648;0;Wrist;1;57867;10,31;-1,3937192907498397;0;0,7488998434972686;-0,4952788104266488;-1,3937192907498397;0,7488998434972686;-6,927701651051363;-3,5401470992156745;2,075258644367809
11:55:00.648;0;Wrist;1;57868;10,31;-1,4343943840220343;-0,7309549599253823;0,6771203092097232;-0,7309549599253823;-1,4343943840220343;0,6771203092097232;-1,1291848506118962;-4,394665364543596;3,0823694570757163
11:55:00.649;0;Wrist;1;57869;10,31;-1,7011750341425824;-0,5933775192075869;0;-0,5933775192075869;-1,7011750341425824;0,4306772057252724;4,0284432508316295;-7,324442274239326;4,4557023834955904
11:55:00.679;0;Mov;1;11526;10,09;0;-1,247767618717002;-0,6125187045083468;-1,247767618717002;-0,04426404688906713;-0,6125187045083468;-13,000885036774804;-20,44740134891812;-3,6317026276436657
11:55:00.679;0;Mov;1;11527;10,09;0;-0,9905576208532976;-0,8146977499275185;-0,9905576208532976;0,10527665326872311;-0,8146977499275185;-17,120883816034425;-27,06991790520951;-6,714072084719382
11:55:00.679;0;Mov;1;11528;10,09;0;-1,0527665028839992;-0,6938688314462722;-1,0527665028839992;-0,14834437980189671;-0,6938688314462722;-22,73628955961791;-33,53984191412091;-9,826960051271096
11:55:00.679;0;Mov;1;11529;10,09;0;-0,9797906668675802;-0,8027344942129276;-0,9797906668675802;-0,15552232428968168;-0,8027344942129276;-29,450361644337292;-39,49095126194037;-11,963255714590899
11:55:00.679;0;Mov;1;11530;10,09;0;-0,6687460182882168;-1,0491775976973785;-0,6687460182882168;0,040675070919770656;-1,0491775976973785;-37,20206305124058;-46,84591204565569;-13,306070131534776
11:55:00.679;0;Wrist;1;57870;9,97;-1,641358755569628;-0,5072420661412397;0;-0,5072420661412397;-1,641358755569628;0,41632131674970246;6,714072084719382;-6,927701651051363;6,0121463667714465
11:55:00.680;0;Wrist;1;57871;9,97;-1,4678915477080599;-0,6089297397152623;0;-0,6089297397152623;-1,4678915477080599;0,24524674214911343;10,925626392406995;-5,615405743583484;6,805627613147374
11:55:00.680;0;Wrist;1;57872;9,97;-1,3051911746192817;0;-0,5036531013481551;-0,117239908983314;-1,3051911746192817;-0,5036531013481551;17,212439344462418;-6,897183141575366;6,2868129520554215
11:55:00.680;0;Wrist;1;57873;9,97;-1,2106815498443555;0,7321512616542558;0;0,7321512616542558;-1,2106815498443555;-0,3349711600085452;21,39347514267403;-12,26844080935087;2,4719992675557725
11:55:00.680;0;Wrist;1;57874;9,97;-1,5133518478957488;0;0;0,09211707347283471;-1,5133518478957488;0,22251656225203711;21,698660237434005;-17,91436506241035;-0,27466658528397475
11:55:00.701;0;Mov;1;11531;9,65;0;0;0;-0,36846829389133884;-0,031104465230476736;-0,3194189395008698;-42,3291726432081;-53,071687978759115;-15,350810266426588
11:55:00.701;0;Mov;1;11532;9,65;0;0;0;-0,36846829389133884;-0,39598377011360514;0,0945097216354297;-39,735099337748345;-53,01065095980712;-18,18903164769433
11:55:00.701;0;Mov;1;11533;9,65;-0,5491134611423079;0;0;-0,38043154960592973;-0,5491134611423079;0,09690236979802469;-33,448286385692924;-50,263985106967375;-19,318216498306224
11:55:00.701;0;Mov;1;11534;9,65;-0,930741342280343;0;0;-0,2751548814355907;-0,930741342280343;0,3050630207220679;-25,360881374553667;-46,174504837183754;-19,226660969878232
11:55:00.701;0;Mov;1;11535;9,65;-1,0910489926984466;0;0;-0,40316172950300605;-1,0910489926984466;0,1770561875562685;-18,097476119266336;-40,345469527268286;-18,311105685598314
11:55:00.708;0;Wrist;1;57875;9,65;-1,8291818226035341;0;0;-0,20935697500534073;-1,8291818226035341;0,417517618478576;19,959105197302165;-18,55525376140629;-0,640888698995941
11:55:00.708;0;Wrist;1;57876;9,65;-1,7262978473006378;0;0,5909848561433759;0,019141209515885837;-1,7262978473006378;0,5909848561433759;14,862514114810633;-16,785180211798455;0,5188146610919523
11:55:00.708;0;Wrist;1;57877;9,65;-1,5767571508682516;0;0,5861995300149541;0,08493911408343378;-1,5767571508682516;0,5861995300149541;7,812738425855281;-14,313180944242683;2,1362956633198036
11:55:00.708;0;Wrist;1;57878;9,65;-1,4535355693227943;0;0,7764153197195349;-0,1292031646979049;-1,4535355693227943;0,7764153197195349;3,2349620044557024;-13,428144169438765;2,7466658528397474
11:55:00.708;0;Wrist;1;57879;9,65;-1,2346080612735375;0;0,8314462721640675;0,05024567474636257;-1,2346080612735375;0,8314462721640675;3,295999023407697;-12,024292733542893;2,9908139286477247
11:55:00.762;0;Mov;1;11536;9,84;-1,0144841322824794;-0,6005554487937559;0;-0,6005554487937559;-1,0144841322824794;0,3062593522541734;-13,550218207342754;-34,18073061311686;-16,693624683370466
11:55:00.762;0;Mov;1;11537;9,84;-1,1604358043153173;-0,5646656816499832;0;-0,5646656816499832;-1,1604358043153173;0,3289895321512497;-11,108737449262978;-32,685323648792995;-13,58073671681875
11:55:00.762;0;Mov;1;11538;9,84;-1,0001281538972138;-0,6424268437948241;0;-0,6424268437948241;-1,0001281538972138;0,1914120914334544;-9,03347880489517;-30,487990966521195;-10,406811731315043
11:55:00.762;0;Mov;1;11539;9,84;-0,7094210519539476;-0,6831019370670186;0;-0,6831019370670186;-0,7094210519539476;-0,11365092928861355;-8,209479049043244;-28,962065492721337;-9,643848994415112
11:55:00.762;0;Mov;1;11540;9,84;-0,595770122665334;0;0;-0,43187353725737787;-0,595770122665334;-0,410339688892407;-8,087405011139255;-29,389324625385296;-9,704886013367107
11:55:00.768;0;Wrist;1;57880;9,81;-1,1173681075853756;0;1,1317239667577135;-0,1961974026602603;-1,1173681075853756;1,1317239667577135;4,760887478255562;-11,963255714590899;2,5940733054597613
11:55:00.768;0;Wrist;1;57881;9,81;-1,0982269222846157;0;0,9139927604373302;-0,4019653979709006;-1,0982269222846157;0,9139927604373302;6,653035065767388;-11,261329996642964;1,0376293221839046
11:55:00.768;0;Wrist;1;57882;9,81;-1,2178594794305246;0;0;-0,31582994490455335;-1,2178594794305246;0,31582994490455335;7,751701406903287;-13,031403546250802;-0,18311105685598317
11:55:00.768;0;Wrist;1;57883;9,81;-1,1676137339014863;0;0;0,21892758255733666;-1,1676137339014863;-0,08135014183954131;6,2868129520554215;-17,670216986602373;-0,3357036042359691
11:55:00.768;0;Wrist;1;57884;9,81;-1,1520615730002746;0,7046357854319895;0;0,7046357854319895;-1,1520615730002746;-0,3469344157231361;4,211554307687613;-18,70784630878628;-1,3733329264198737
11:55:00.822;0;Mov;1;11541;9,98;-0,6077333783799249;0;0;0,020337535459885328;-0,6077333783799249;-0,49049348429822687;-7,202368236335337;-29,3588061159093;-8,545182653279214
11:55:00.822;0;Mov;1;11542;9,98;-0,7118137150181585;0;0;-0,07536851398224585;-0,7118137150181585;-0,2739585499034852;-5,096591082491531;-24,14014099551378;-7,690664387951292
11:55:00.822;0;Mov;1;11543;9,98;-0,8458021909428693;0;0;-0,2799401777607807;-0,8458021909428693;-0,11125828112601856;-3,021332438123722;-22,73628955961791;-7,141331217383343
11:55:00.822;0;Mov;1;11544;9,98;-0,9056184695158238;0;0;-0,19500107112815485;-0,9056184695158238;-0,08733176969683676;-1,5564439832758568;-22,370067445905942;-5,829035309915464
11:55:00.822;0;Mov;1;11545;9,98;-0,8936552138012329;0;0;-0,3935911070493942;-0,8936552138012329;0,0598162785729545;-1,3733329264198737;-19,928586687826165;-4,303109836115604
11:55:00.828;0;Wrist;1;57885;9,96;-1,2561418500320445;0,9618457832956938;0;0,9618457832956938;-1,2561418500320445;-0,3888058107242042;1,2207403790398876;-17,48710592974639;-3,2654805139316996
11:55:00.828;0;Wrist;1;57886;9,96;-1,311172802476577;0;0;0,468959635933256;-1,311172802476577;0,3313821952154607;-1,1597033600878932;-14,526810510574663;-5,188146610919523
11:55:00.828;0;Wrist;1;57887;9,96;-1,3590258253349405;0;0,5072420661412397;-0,0957060457167272;-1,3590258253349405;0,5072420661412397;-0,6714072084719382;-12,543107394634847;-5,3102206488235115
11:55:00.828;0;Wrist;1;57888;9,96;-1,6461439624851222;0;0,5383465071565905;0,19380473959604938;-1,6461439624851222;0,5383465071565905;-0,18311105685598317;-12,787255470442824;-4,913480025635548
11:55:00.828;0;Wrist;1;57889;9,96;-1,6844264522995698;0;0,6424268437948241;0,18782311173875393;-1,6844264522995698;0,6424268437948241;0,8545182653279214;-11,383404034546952;-3,2654805139316996
11:55:00.851;0;Mov;1;11546;9,72;-0,9139927604373302;-0,5670583447141941;0;-0,5670583447141941;-0,9139927604373302;0,06819056204365291;-1,2512588885158848;-17,15140232551042;-2,166814172795801
11:55:00.851;0;Mov;1;11547;9,72;-0,8553727835932493;-0,5754326356357006;0;-0,5754326356357006;-0,8553727835932493;0,05024567474636257;-1,6479995117038484;-15,900143436994536;-0,9765923032319102
11:55:00.851;0;Mov;1;11548;9,72;-0,7823969475768303;-0,6137150062372204;0;-0,6137150062372204;-0,7823969475768303;0,027515489261180266;-2,075258644367809;-14,831995605334635;-0,45777764213995786
11:55:00.851;0;Mov;1;11549;9,72;-0,6567827625736259;-0,6998504593035676;0;-0,6998504593035676;-0,6567827625736259;0,0358897671437727;-2,4719992675557725;-14,007995849482711;0,27466658528397475
11:55:00.851;0;Mov;1;11550;9,72;-0,5263832514419996;-0,7907712384983367;0;-0,7907712384983367;-0,5263832514419996;-0,003588976900647469;-3,021332438123722;-14,099551377910704;0,3357036042359691
11:55:00.858;0;Wrist;1;57890;9,71;-1,6449476607562488;0;0,6783166109385967;-0,004785302378971459;-1,6449476607562488;0,6783166109385967;2,197332682271798;-9,308145390179144;-1,8921475875118259
11:55:00.858;0;Wrist;1;57891;9,71;-1,7597948917737358;0;0,7500961452261422;0,04187139500106815;-1,7597948917737358;0,7500961452261422;3,845332193975646;-8,423108615375225;-0,09155552842799158
11:55:00.859;0;Wrist;1;57892;9,71;-1,655714614741966;0;0,708224750225074;-0,119632557145909;-1,655714614741966;0,708224750225074;5,493331705679495;-7,782219916379284;2,410962248603778
11:55:00.859;0;Wrist;1;57893;9,71;-1,5791497543259987;0;0,6424268437948241;-0,236872466129223;-1,5791497543259987;0,6424268437948241;7,263405255287331;-8,270516067995239;4,760887478255562
11:55:00.859;0;Wrist;1;57894;9,71;-1,482247406880398;0;0,525186949713126;-0,1794488357188635;-1,482247406880398;0,525186949713126;8,48414563432722;-10,010071108127079;6,2868129520554215
11:55:00.910;0;Mov;1;11551;9,85;0;-1,050373899426252;0;-1,050373899426252;-0,4091433573603015;-0,010766930701942408;-3,2349620044557024;-15,015106662190618;-1,1291848506118962
11:55:00.910;0;Mov;1;11552;9,85;0;-1,231019036873989;0;-1,231019036873989;-0,40794702582819603;-0,09929502541142765;-3,8758507034516434;-17,91436506241035;-3,5706656086916717
11:55:00.910;0;Mov;1;11553;9,85;0;-1,2956206415753655;0;-1,2956206415753655;-0,4462294560361797;-0,1387737722499008;-4,24207281716361;-22,766808069093905;-6,530961027863399
11:55:00.910;0;Mov;1;11554;9,85;-0,5431318332850124;-1,3386883383053072;0;-1,3386883383053072;-0,5431318332850124;-0,1315958128604999;-4,760887478255562;-28,90102847376934;-9,094515823847164
11:55:00.910;0;Mov;1;11555;9,85;-0,6053407749221777;-1,3733818037202064;0;-1,3733818037202064;-0,6053407749221777;-0,20696432684274574;-5,035554063539537;-35,9202856532487;-11,352885525070956
11:55:00.918;0;Wrist;1;57895;9,85;-1,3255287808618428;0;0,5263832514419996;-0,2787438760319071;-1,3255287808618428;0,5263832514419996;8,667256691183203;-12,39051484725486;6,500442518387402
11:55:00.918;0;Wrist;1;57896;9,85;-1,3327067104480117;0;0;-0,239265114291818;-1,3327067104480117;0,3517197120483261;7,599108859523301;-13,977477340006715;6,317331461531419
11:55:00.918;0;Wrist;1;57897;9,85;-1,231019036873989;0;0;0,117239908983314;-1,231019036873989;0,31582994490455335;6,4394054994354075;-15,930661946470535;5,371257667775506
11:55:00.919;0;Wrist;1;57898;9,85;-1,189147641872921;0;0;-0,32061527103297527;-1,189147641872921;0,48211922317995237;7,812738425855281;-16,571550645466477;4,486220892971588
11:55:00.919;0;Wrist;1;57899;9,85;-1,1077974553285317;0;0,5000640769486069;-0,37684255500961333;-1,1077974553285317;0,5000640769486069;8,270516067995239;-19,409772026734213;4,486220892971588
11:55:00.973;0;Mov;1;11556;10;-0,6472121699232459;-1,3841487577059237;0;-1,3841487577059237;-0,6472121699232459;-0,2153386028626362;-4,943998535111545;-42,93954283272805;-13,214514603106783
11:55:00.974;0;Mov;1;11557;10;-0,6938688314462722;-1,7346720786156804;0;-1,7346720786156804;-0,6938688314462722;0,02273018548518231;-4,303109836115604;-48,829615161595505;-14,89303262428663
11:55:00.974;0;Mov;1;11558;10;-0,9869685964537492;-1,9129246126056703;0;-1,9129246126056703;-0,9869685964537492;-0,11604358490201651;-3,967406231879635;-59,48057496871853;-15,86962492751854
11:55:00.974;0;Mov;1;11559;10;0;-1,5456527098529007;0;-1,5456527098529007;-0,3864131774632252;-0,22610554194673757;-4,8829615161595505;-73,39701528977325;-19,043549913022247
11:55:00.974;0;Mov;1;11560;10;0,874514028500473;0;0;-0,21174962316793572;0,874514028500473;0,0239265114291818;-0,7019257179479355;-80,29419843134862;-22,27851191747795
11:55:00.980;0;Wrist;1;57900;10;-1,1592395025864437;0;0,5479170998069705;-0,4510147523613697;-1,1592395025864437;0,5479170998069705;8,545182653279214;-22,91940061647389;4,852443006683553
11:55:00.981;0;Wrist;1;57901;10;-1,1424909207434308;-0,9187780865657521;0,8266610056421094;-0,9187780865657521;-1,1424909207434308;0,8266610056421094;7,4159978026673175;-28,015991698965422;5,371257667775506
11:55:00.981;0;Wrist;1;57902;10;-1,9906857747505111;-0,9666311094241157;0,5192053218558306;-0,9666311094241157;-1,9906857747505111;0,5192053218558306;3,7842951750236518;-37,75139622180853;6,927701651051363
11:55:00.981;0;Wrist;1;57903;10;-1,5324930331965088;-0,9391155735953856;1,235804363002411;-0,9391155735953856;-1,5324930331965088;1,235804363002411;-3,6317026276436657;-47,42576372569964;11,261329996642964
11:55:00.981;0;Wrist;1;57904;10;-0,8769066319582202;-1,3291176860484635;0,7321512616542558;-1,3291176860484635;-0,8769066319582202;0,7321512616542558;-11,566515091402936;-59,63316751609852;13,550218207342754
11:55:01.001;0;Mov;1;11561;9,77;-1,489425336466567;0;0;-0,11484726082071901;-1,489425336466567;0,44144412990775783;10,620441297647023;-74,03790398876919;-17,303994872890406
11:55:01.001;0;Mov;1;11562;9,77;-2,444093190176092;1,5815424769966735;0;1,5815424769966735;-2,444093190176092;-0,39957273490668965;14,099551377910704;-85,11612292855617;-10,22370067445906
11:55:01.001;0;Mov;1;11563;9,77;-1,1975218731879635;0;0;0,1531296761270867;-1,1975218731879635;0,3469344157231361;12,39051484725486;-59,08383434553056;-2,410962248603778
11:55:01.001;0;Mov;1;11564;9,77;0;0;0;-0,08493911408343378;0,1184362330646115;0,44144412990775783;4,0284432508316295;-49,01272621845149;1,6479995117038484
11:55:01.001;0;Mov;1;11565;9,77;0;0;0;-0,007177953801294938;-0,16509293184167761;0,26558428878521073;-2,838221381267739;-45,89983825189978;0,8239997558519242
11:55:01.018;0;Wrist;1;57905;9,86;-1,269301407475509;0;0;-0,08972441785943175;-1,269301407475509;-0,13279214439260537;-18,097476119266336;-76,20471816156498;13,122959074678793
11:55:01.018;0;Wrist;1;57906;9,86;-1,1735953617587818;1,3925229890209663;0;1,3925229890209663;-1,1735953617587818;0,49408247889454326;-18,127994628742332;-80,53834650715659;11,352885525070956
11:55:01.018;0;Wrist;1;57907;9,86;-1,5372783593249306;0;0,9929502243110446;0,46417433960806603;-1,5372783593249306;0,9929502243110446;-12,024292733542893;-70,86397900326548;8,270516067995239
11:55:01.018;0;Wrist;1;57908;9,86;-1,5468490115817743;0;0,8828882598155157;0,010766930701942408;-1,5468490115817743;0,8828882598155157;-10,132145146031068;-72,20679342020935;7,446516312143315
11:55:01.018;0;Wrist;1;57909;9,86;-1,010895107882931;0;1,0419995488982818;-0,4881008510372478;-1,010895107882931;1,0419995488982818;-13,031403546250802;-77,39494003112888;10,498367259743034
11:55:01.060;0;Mov;1;11566;9,87;-0,7441145173688467;0;0;-0,040675070919770656;-0,7441145173688467;-0,04306772280776963;-6,530961027863399;-40,92532120731224;0,12207403790398877
11:55:01.060;0;Mov;1;11567;9,87;-0,5766289373645741;0;-0,5096347292054506;0,03947874311306917;-0,5766289373645741;-0,5096347292054506;-6,74459059419538;-38,48384044923246;-0,36622211371196634
11:55:01.060;0;Mov;1;11568;9,87;-0,5467207980780968;-0,9211706900234993;0,6436231455236976;-0,9211706900234993;-0,5467207980780968;0,6436231455236976;-5,584887234107486;-30,060731833857233;-0,27466658528397475
11:55:01.061;0;Mov;1;11569;9,87;-1,360222246276742;-2,225165562913907;2,1617602599414045;-2,225165562913907;-1,360222246276742;2,1617602599414045;-6,927701651051363;-37,11050752281258;1,1902218695638904
11:55:01.061;0;Mov;1;11570;9,87;-0,783593249305704;-1,9547960076067386;1,6892117784279916;-1,9547960076067386;-0,783593249305704;1,6892117784279916;-8,209479049043244;-75,38071840571307;2,1057771538438064
11:55:01.068;0;Wrist;1;57910;9,87;-1,1197607110431227;0;0,5826105652218696;-0,4270882409321879;-1,1197607110431227;0,5826105652218696;-15,045625171666616;-90,67049165318765;13,306070131534776
11:55:01.068;0;Wrist;1;57911;9,87;-1,4463576397366253;0;0;-0,05742363041035951;-1,4463576397366253;0,2990813928647725;-15,259254737998596;-100,13122959074678;15,655995361186559
11:55:01.068;0;Wrist;1;57912;9,87;-0,891262550737022;0;1,0491775976973785;-0,49049348429822687;-0,891262550737022;1,0491775976973785;-17,181920834986418;-103,39671010467849;16,449476607562488
11:55:01.068;0;Wrist;1;57913;9,87;-0,7285622968611714;-1,123349735442671;2,0134159844508193;-1,123349735442671;-0,7285622968611714;2,0134159844508193;-18,18903164769433;-112,94900357066561;15,472884304330577
11:55:01.068;0;Wrist;1;57914;9,87;-1,8937834273049103;-1,0049134800256356;2,7348003517258217;-1,0049134800256356;-1,8937834273049103;2,7348003517258217;-17,700735496078373;-129,03225806451613;11,932737205114902
11:55:01.097;0;Wrist;1;57915;9,68;-2,085195518738365;0;1,1066011535996583;0,23089083827192755;-2,085195518738365;1,1066011535996583;-15,86962492751854;-132,32825708792382;10,681478316599017
11:55:01.097;0;Wrist;1;57916;9,68;-1,5982909396267586;0;1,2046999219870602;0,44503312450407423;-1,5982909396267586;1,2046999219870602;-7,141331217383343;-119,93774224066897;9,918515579699088
11:55:01.098;0;Wrist;1;57917;9,68;-2,2299510082552567;0;1,0216620618686483;-0,15552232428968168;-2,2299510082552567;1,0216620618686483;-3,967406231879635;-110,56855983153783;7,324442274239326
11:55:01.098;0;Wrist;1;57918;9,68;-2,8412732322153387;0,6472121699232459;0,9439008997238075;0,6472121699232459;-2,8412732322153387;0,9439008997238075;-4,333628345591602;-102,93893246253853;3,0823694570757163
11:55:01.098;0;Wrist;1;57919;9,68;-2,757530442213202;0;2,012219563509018;0,20217903051755579;-2,757530442213202;2,012219563509018;3,204443494979705;-97,20145268105105;-3,2654805139316996
11:55:01.121;0;Mov;1;11571;9,98;1,2226448055589465;0;0;-0,0119632557145909;1,2226448055589465;0,47254860072634053;-11,658070619830928;-104,98367259743034;4,0284432508316295
11:55:01.121;0;Mov;1;11572;9,98;0;0;0,8434095278786584;-0,4498184208292642;0,297885061332667;0,8434095278786584;-16,20532853175451;-90,45686208685568;4,577776421399578
11:55:01.121;0;Mov;1;11573;9,98;0;-0,9343303070734276;0,9319376440092166;-0,9343303070734276;-0,05742363041035951;0,9319376440092166;-14,252143925290689;-90,09063997314371;3,967406231879635
11:55:01.121;0;Mov;1;11574;9,98;1,303994872890408;-0,6567827625736259;0;-0,6567827625736259;1,303994872890408;0,20337534714804528;-10,895107882930997;-90,24323252052369;7,110812707907346
11:55:01.121;0;Mov;1;11575;9,98;0;-1,6545183130130925;1,1927366662724692;-1,6545183130130925;-0,08493911408343378;1,1927366662724692;-18,616290780358288;-73,85479293191321;6,988738670003357
11:55:01.150;0;Mov;1;11576;9,79;-1,3757744071779534;-1,5456527098529007;0,6603717273667105;-1,5456527098529007;-1,3757744071779534;0,6603717273667105;-25,086214789269693;-68,94131290627766;1,8311105685598315
11:55:01.150;0;Mov;1;11577;9,79;-0,9020295047227394;-0,5802179021576587;0;-0,5802179021576587;-0,9020295047227394;-0,3433454509300516;-24,65895565660573;-71,6269417401654;-2,380443739127781
11:55:01.150;0;Mov;1;11578;9,79;-0,6232856584940641;-0,7249733320680868;0;-0,7249733320680868;-0,6232856584940641;-0,0239265114291818;-23,438215277565845;-69,82634968108158;-3,021332438123722
11:55:01.150;0;Mov;1;11579;9,79;-0,5718436112361522;-0,9247597144230476;0;-0,9247597144230476;-0,5718436112361522;0,10527665326872311;-24,506363109225745;-68,75820184942168;-3,021332438123722
11:55:01.150;0;Mov;1;11580;9,79;0;-0,8960478768654438;0;-0,8960478768654438;-0,3553087066446425;0,07417218990094836;-25,391399884029664;-67,3848689230018;-4,0284432508316295
11:55:01.158;0;Wrist;1;57920;9,8;-1,655714614741966;-0,7512924469550157;1,609057893612476;-0,7512924469550157;-1,655714614741966;1,609057893612476;17,212439344462418;-90,09063997314371;-2,9297769096957307
11:55:01.158;0;Wrist;1;57921;9,8;-2,1892757957701345;0;0;0,04306772280776963;-2,1892757957701345;0,3780388865417188;18,524735251930295;-92,77626880703147;-1,922666096987823
11:55:01.159;0;Wrist;1;57922;9,8;-1,5073702200384533;0,644819506859035;0;0,644819506859035;-1,5073702200384533;-0,11604358490201651;19,379253517258217;-85,11612292855617;-3,295999023407697
11:55:01.159;0;Wrist;1;57923;9,8;-0,9953428873752556;0;0;-0,0705832102062479;-0,9953428873752556;0,0119632557145909;15,381328775902585;-80,20264290292062;-5,584887234107486
11:55:01.159;0;Wrist;1;57924;9,8;-0,708224750225074;0;0;0,10168767357402264;-0,708224750225074;-0,3900021422563097;14,862514114810633;-71,01657155064547;-4,333628345591602
11:55:01.216;0;Mov;1;11581;9,94;0;0;-0,6890835649243141;-0,37205725868442335;-0,20457167868015075;-0,6890835649243141;-25,513473921933652;-65,98101748710593;-3,9979247413556322
11:55:01.216;0;Mov;1;11582;9,94;-0,532364879299295;0;-1,250160222174749;-0,04904935066506508;-0,532364879299295;-1,250160222174749;-24,597918637653738;-61,9525742362743;-3,051850947599719
11:55:01.216;0;Mov;1;11583;9,94;-0,8876735859439375;0;-1,7155308933149205;0,1543260076591922;-0,8876735859439375;-1,7155308933149205;-22,94991912594989;-56,36768700216681;-2,7771843623157446
11:55:01.216;0;Mov;1;11584;9,94;-0,9427045979949339;0;-1,5205297774819178;-0,013159581658590389;-0,9427045979949339;-1,5205297774819178;-20,966216010010072;-49,16531876583148;-3,0823694570757163
11:55:01.216;0;Mov;1;11585;9,94;-0,717795342875454;0;-0,8063234590060121;-0,3170262764366588;-0,717795342875454;-0,8063234590060121;-19,837031159398176;-42,60383922849208;-3,173924985503708
11:55:01.219;0;Wrist;1;57925;9,89;-0,9415082366595966;0;-0,7154026798112431;0,30745568378627885;-0,9415082366595966;-0,7154026798112431;13,702810754722739;-68,84975737784967;-4,394665364543596
11:55:01.219;0;Wrist;1;57926;9,89;-1,1676137339014863;0;-1,1807734105578784;0,29309976500747703;-1,1676137339014863;-1,1807734105578784;11,566515091402936;-66,04205450605792;-4,211554307687613
11:55:01.219;0;Wrist;1;57927;9,89;-1,1365092928861353;0;-1,2788720597323526;0,49168981583033233;-1,1365092928861353;-1,2788720597323526;10,132145146031068;-57,49687185277871;-2,6551103244117558
11:55:01.219;0;Wrist;1;57928;9,89;-0,9917539225821711;0,6161076693014313;-1,8543046357615893;0,6161076693014313;-0,9917539225821711;-1,8543046357615893;8,514664143803216;-48,34131900997955;-1,2512588885158848
11:55:01.219;0;Wrist;1;57929;9,89;-0,7847896106410412;0,6555864012382885;-1,4571245937223427;0,6555864012382885;-0,7847896106410412;-1,4571245937223427;5,554368724631489;-44,22132023071993;-1,403851435895871
11:55:01.248;0;Wrist;1;57930;9,72;0;0;0,7261696337969603;0,297885061332667;-0,47254860072634053;0,7261696337969603;2,2583697012237924;-39,91821039460433;-1,586962492751854
11:55:01.248;0;Wrist;1;57931;9,72;-1,0132878305536057;0;0,7560777730834376;-0,38043154960592973;-1,0132878305536057;0,7560777730834376;2,838221381267739;-37,35465559862056;0,15259254737998595
11:55:01.248;0;Wrist;1;57932;9,72;-1,6748558000427258;0;-0,6747276461455123;0,1866267951082644;-1,6748558000427258;-0,6747276461455123;3,7537766655476545;-37,65984069338054;2,044740134891812
11:55:01.248;0;Wrist;1;57933;9,72;-1,4523392675939206;0,727365935525834;-1,1831660140156255;0,727365935525834;-1,4523392675939206;-1,1831660140156255;3,936887722403638;-33,600878933072906;1,4343699453718681
11:55:01.248;0;Wrist;1;57934;9,72;-1,001324574839015;0,5431318332850124;-1,311172802476577;0,5431318332850124;-1,001324574839015;-1,311172802476577;3,6317026276436657;-27,03939939573351;0,9155552842799157
11:55:01.275;0;Mov;1;11586;10,03;0;-0,6041444135868405;0;-0,6041444135868405;-0,3947874385814997;-0,31224098011146884;-20,23377178258614;-39,1247291482284;-3,448591570787683
11:55:01.276;0;Mov;1;11587;10,03;0;0;-0,8553727835932493;-0,40794702582819603;-0,11006195704472106;-0,8553727835932493;-19,379253517258217;-37,62932218390454;-4,150517288735618
11:55:01.276;0;Mov;1;11588;10,03;0;0;-0,7213843076685384;-0,21414228623214668;-0,410339688892407;-0,7213843076685384;-18,280587176122317;-35,187841425824764;-3,814813684499649
11:55:01.276;0;Mov;1;11589;10,03;-0,774022656655324;0;-0,8792992950224311;-0,20816065837485123;-0,774022656655324;-0,8792992950224311;-17,365031891842403;-32,19702749717704;-3,662221137119663
11:55:01.276;0;Mov;1;11590;10,03;-0,8996368416585284;0;-1,050373899426252;-0,2859218056180761;-0,8996368416585284;-1,050373899426252;-16,05273598437452;-29,11465804010132;-3,9979247413556322
11:55:01.301;0;Mov;1;11591;9,83;-0,8422132261497849;0;-1,2274300124744408;-0,16030763551648763;-0,8422132261497849;-1,2274300124744408;-13,550218207342754;-25,788140507217626;-4,791405987731559
11:55:01.301;0;Mov;1;11592;9,83;-0,8075197607348857;0;-1,4535355693227943;-0,0478530228583636;-0,8075197607348857;-1,4535355693227943;-9,24710837122715;-22,309030426953946;-4,7303689687795645
11:55:01.301;0;Mov;1;11593;9,83;-0,8469984926717429;0;-1,2980132450331126;-0,10288399765532014;-0,8469984926717429;-1,2980132450331126;-4,333628345591602;-19,13510544145024;-4,4557023834955904
11:55:01.302;0;Mov;1;11594;9,83;-0,7249733320680868;0;-1,1066011535996583;-0,18423414694566942;-0,7249733320680868;-1,1066011535996583;-1,281777397991882;-15,411847285378583;-4,272591326639607
11:55:01.302;0;Mov;1;11595;9,83;0;0;0;-0,49168981583033233;-0,3553087066446425;-0,07297585836884289;0,24414807580797754;-12,39051484725486;-4,058961760307627
11:55:01.340;0;Wrist;1;57935;10,07;-0,881691958086642;0;0;0,43665883358256785;-0,881691958086642;-0,45580004868655966;1,4343699453718681;-21,85125278481399;1,2207403790398876
11:55:01.340;0;Wrist;1;57936;10,07;-0,996539248710593;0;0,537150205427717;0,119632557145909;-0,996539248710593;0,537150205427717;-1,0376293221839046;-19,806512649922176;1,2207403790398876
11:55:01.340;0;Wrist;1;57937;10,07;-1,2645162005600146;0;0;-0,16509293184167761;-1,2645162005600146;0,478530228583636;-1,2512588885158848;-20,020142216254158;1,8616290780358287
11:55:01.340;0;Wrist;1;57938;10,07;-1,5025848939100315;0;0;0,19260842296555986;-1,5025848939100315;-0,239265114291818;-2,1362956633198036;-20,020142216254158;2,410962248603778
11:55:01.340;0;Wrist;1;57939;10,07;-1,2597308744315927;0;-0,6388378790017396;0,34454178246215705;-1,2597308744315927;-0,6388378790017396;-2,044740134891812;-17,822809533982362;1,9531846064638203
11:55:01.361;0;Mov;1;11596;9,91;0;-0,8242683425778985;0,6185003323656423;-0,8242683425778985;-0,16868191153637807;0,6185003323656423;-0,8239997558519242;-11,352885525070956;-2,71614734336375
11:55:01.361;0;Mov;1;11597;9,91;0;-1,0719076881847591;1,0599444324701681;-1,0719076881847591;-0,0837427900021363;1,0599444324701681;-4,119998779259621;-11,902218695638904;-1,586962492751854
11:55:01.361;0;Mov;1;11598;9,91;0;-0,5515061242065188;0;-0,5515061242065188;0,09092074194072924;-0,1184362330646115;-5,829035309915464;-14,526810510574663;-1,2512588885158848
11:55:01.361;0;Mov;1;11599;9,91;0;0;0;-0,15791497245227668;-0,20337534714804528;-0,44862208929715874;-6,653035065767388;-14,496292001098666;-0,21362956633198035
11:55:01.361;0;Mov;1;11600;9,91;0;0;-0,7776116214484085;-0,26079899246002075;-0,4701559674653615;-0,7776116214484085;-7,965330973235267;-12,298959318826869;0,4272591326639607
11:55:01.368;0;Wrist;1;57940;9,91;-1,1257423389004182;0;0;0,3660756308271279;-1,1257423389004182;-0,2667806203173162;-2,044740134891812;-14,862514114810633;1,9837031159398175
11:55:01.368;0;Wrist;1;57941;9,91;-1,3446699661626027;0;0;0,08015381775824382;-1,3446699661626027;0,15671865582178715;-4,1810357982116155;-13,702810754722739;1,8616290780358287
11:55:01.368;0;Wrist;1;57942;9,91;-1,7179234967726675;0;0;0,1890194432708594;-1,7179234967726675;-0,2703695851104007;-5,249183629871517;-13,397625659962767;2,044740134891812
11:55:01.370;0;Wrist;1;57943;9,91;-1,7083529637287516;0;-0,5706473095072787;0,49049348429822687;-1,7083529637287516;-0,5706473095072787;-4,089480269783624;-11,261329996642964;1,0681478316599018
11:55:01.370;0;Wrist;1;57944;9,91;-1,5265114053392133;0;-0,6304635880802332;0,4845118564409314;-1,5265114053392133;-0,6304635880802332;-2,166814172795801;-6,469924008911405;0,15259254737998595
11:55:01.399;0;Wrist;1;57945;9,76;-1,409271570863979;0;0;0,2942960965395825;-1,409271570863979;-0,003588976900647469;0,24414807580797754;-2,4719992675557725;-0,3967406231879635
11:55:01.399;0;Wrist;1;57946;9,76;-1,5827387787255471;0;0;0,0705832102062479;-1,5827387787255471;0,20337534714804528;1,4648884548478653;-1,1597033600878932;-0,6714072084719382
11:55:01.399;0;Wrist;1;57947;9,76;-1,4068788481933043;0;0;0,12202521275931195;-1,4068788481933043;0,30027772439687794;2,5025177770317697;-0,793481246375927;-1,2512588885158848
11:55:01.399;0;Wrist;1;57948;9,76;-0,9343303070734276;0;0;0,12082888867801446;-0,9343303070734276;0,3708609271523179;2,075258644367809;-0,8545182653279214;-1,2207403790398876
11:55:01.399;0;Wrist;1;57949;9,76;-0,7130100763534959;0;0;0,04546037097036462;-0,7130100763534959;0,16150395214697713;1,2207403790398876;-1,5259254737998595;-0,27466658528397475
11:55:01.421;0;Mov;1;11601;9,99;0;0;-1,0276436897259438;-0,08254646592083881;-0,37923521807382427;-1,0276436897259438;-8,819849238563188;-8,789330729087192;0,36622211371196634
11:55:01.421;0;Mov;1;11602;9,99;0;0;-1,2058962237159336;0,010766930701942408;-0,2488357218438139;-1,2058962237159336;-8,57570116275521;-4,8829615161595505;0,5493331705679495
11:55:01.421;0;Mov;1;11603;9,99;0;0;-1,0754967125843073;-0,10408032918742562;-0,44144412990775783;-1,0754967125843073;-7,202368236335337;-1,0681478316599018;1,4343699453718681
11:55:01.421;0;Mov;1;11604;9,99;-0,7142063780823694;0;-1,0324290158543656;-0,16030763551648763;-0,7142063780823694;-1,0324290158543656;-4,547257911923582;2,044740134891812;2,1362956633198036
11:55:01.422;0;Mov;1;11605;9,99;-1,1149755041276284;-0,5180089605204932;0;-0,5180089605204932;-1,1149755041276284;-0,0837427900021363;-1,73955504013184;3,9979247413556322;2,533036286507767
11:55:01.450;0;Mov;1;11606;9,84;-1,1592395025864437;-0,9690237128818628;0;-0,9690237128818628;-1,1592395025864437;0,37564622347750787;0,18311105685598317;3,2349620044557024;2,166814172795801
11:55:01.450;0;Mov;1;11607;9,84;-0,9151890621662038;-0,7333475633831293;0;-0,7333475633831293;-0,9151890621662038;-0,13997008888039034;0,9765923032319102;2,3194067201757864;0,9765923032319102
11:55:01.450;0;Mov;1;11608;9,84;-0,7776116214484085;0;-0,5096347292054506;-0,3421491193979461;-0,7776116214484085;-0,5096347292054506;1,7090365306558428;2,9297769096957307;0,24414807580797754
11:55:01.450;0;Mov;1;11609;9,84;-0,7321512616542558;0;-0,6699423200170904;-0,3050630207220679;-0,7321512616542558;-0,6699423200170904;2,6245918149357585;4,943998535111545;0,3357036042359691
11:55:01.450;0;Mov;1;11610;9,84;-0,525186949713126;0;-0,5455244963492233;-0,35291604358043155;-0,525186949713126;-0,5455244963492233;2,8687398907437363;7,446516312143315;0,15259254737998595
11:55:01.471;0;Wrist;1;57950;9,93;-0,9271523178807947;0;0;0,24165777735602892;-0,9271523178807947;-0,20696432684274574;0,27466658528397475;-1,5259254737998595;0,8545182653279214
11:55:01.472;0;Wrist;1;57951;9,93;-1,0396069454405348;0;0;0,32061527103297527;-1,0396069454405348;-0,2787438760319071;-0,4882961516159551;0,4882961516159551;1,2207403790398876
11:55:01.472;0;Wrist;1;57952;9,93;-1,118564409314249;0;0;0,2273018585772271;-1,118564409314249;-0,41153599062128055;-0,9155552842799157;3,2349620044557024;1,4343699453718681
11:55:01.472;0;Wrist;1;57953;9,93;-1,238196966460158;0;-0,6627643904309214;0,33257852674756616;-1,238196966460158;-0,6627643904309214;-0,8850367748039186;6,256294442579424;1,3428144169438765
11:55:01.472;0;Wrist;1;57954;9,93;-1,3662038741340372;0;-0,9223670513588367;0,4258919094000824;-1,3662038741340372;-0,9223670513588367;-0,27466658528397475;10,193182164983062;1,2512588885158848
11:55:01.510;0;Mov;1;11611;9,91;0;0;-0,6196966340945158;-0,2703695851104007;-0,24165777735602892;-0,6196966340945158;2,9297769096957307;9,67436750389111;0,061037018951994385
11:55:01.510;0;Mov;1;11612;9,91;0;0;-0,7022431223677785;-0,2548173646027253;-0,16868191153637807;-0,7022431223677785;2,8992584002197335;11,719107638782923;0,8850367748039186
11:55:01.510;0;Mov;1;11613;9,91;0;0;-0,9223670513588367;-0,2488357218438139;-0,17825251908837397;-0,9223670513588367;2,380443739127781;14,099551377910704;1,5259254737998595
11:55:01.510;0;Mov;1;11614;9,91;0;0;-0,825464644306772;-0,21414228623214668;-0,20696432684274574;-0,825464644306772;1,9837031159398175;16,907254249702444;1,9531846064638203
11:55:01.511;0;Mov;1;11615;9,91;0;0;0;-0,4139286536854915;-0,22132023071993165;-0,3170262764366588;1,586962492751854;19,165623950926236;2,4414807580797753
11:55:01.530;0;Wrist;1;57955;10;-1,4224311283074436;0,5132236939985351;-1,0372143419827875;0,5132236939985351;-1,4224311283074436;-1,0372143419827875;-0,3357036042359691;14,862514114810633;0,8239997558519242
11:55:01.531;0;Wrist;1;57956;10;-1,3458662678914761;0;-0,6591754256378368;0,34573808419103064;-1,3458662678914761;-0,6591754256378368;-0,45777764213995786;19,318216498306224;0,5493331705679495
11:55:01.531;0;Wrist;1;57957;10;-1,567186498611408;0;-0,7488998434972686;0,19260842296555986;-1,567186498611408;-0,7488998434972686;-0,8545182653279214;22,461622974333935;0,9460737937559129
11:55:01.531;0;Wrist;1;57958;10;-1,6892117784279916;0;-0,6950651927816095;0,35291604358043155;-1,6892117784279916;-0,6950651927816095;-0,8239997558519242;25,75762199774163;0,640888698995941
11:55:01.532;0;Wrist;1;57959;10;-1,4918180591372416;0;0;0,2667806203173162;-1,4918180591372416;-0,4581927117507706;-0,09155552842799158;29,23673207800531;-0,3051850947599719
11:55:01.559;0;Wrist;1;57960;9,85;-1,4977996869945371;0;-1,0611408534119693;0,20576799531064027;-1,4977996869945371;-1,0611408534119693;0,9460737937559129;32,80739768669698;-0,4272591326639607
11:55:01.559;0;Wrist;1;57961;9,85;-1,6246101737266152;0,5479170998069705;-2,0265756611072114;0,5479170998069705;-1,6246101737266152;-2,0265756611072114;2,71614734336375;38,514358958708456;-0,3051850947599719
11:55:01.559;0;Wrist;1;57962;9,85;-1,606665290154729;1,015680434011353;-2,9453535092471084;1,015680434011353;-1,606665290154729;-2,9453535092471084;5,3102206488235115;49,16531876583148;-0,9460737937559129
11:55:01.559;0;Wrist;1;57963;9,85;-1,609057893612476;1,1448836434141056;-3,763640343180639;1,1448836434141056;-1,609057893612476;-3,763640343180639;11,597033600878934;67,20175786614581;-1,7090365306558428
11:55:01.559;0;Wrist;1;57964;9,85;-1,4056825464644307;0,7512924469550157;-2,0493057515945923;0,7512924469550157;-1,4056825464644307;-2,0493057515945923;23,224585711233864;86,70308542130802;-3,173924985503708
11:55:01.571;0;Mov;1;11616;9,98;0;-0,6041444135868405;0;-0,6041444135868405;-0,1866267951082644;-0,2739585499034852;0,7324442274239327;20,264290292062135;3,051850947599719
11:55:01.571;0;Mov;1;11617;9,98;0;0;-0,7548814713545641;-0,36487929929502244;-0,23328348643452254;-0,7548814713545641;-0,061037018951994385;21,423993652150028;3,2654805139316996
11:55:01.571;0;Mov;1;11618;9,98;0;0;-0,9510788293099764;-0,10049134949272515;-0,478530228583636;-0,9510788293099764;-0,5188146610919523;23,926511429181797;3,662221137119663
11:55:01.571;0;Mov;1;11619;9,98;-0,5694510077784051;0;-1,0276436897259438;-0,19739371929074984;-0,5694510077784051;-1,0276436897259438;-0,3051850947599719;27,405621509445478;3,967406231879635
11:55:01.571;0;Mov;1;11620;9,98;0;0;-1,1113864797280801;-0,23208716980403302;-0,4569963802186651;-1,1113864797280801;0;31,037324137089144;4,333628345591602
11:55:01.601;0;Mov;1;11621;9,85;0;0;-1,1066011535996583;-0,2009826989854503;-0,3361674915406507;-1,1066011535996583;-0,5798516800439466;35,12680440687277;4,425183874019593
11:55:01.601;0;Mov;1;11622;9,85;0;0;-1,9571887302774134;0,0837427900021363;-0,05503097852236053;-1,9571887302774134;-0,8545182653279214;40,406506546220285;4,974517044587542
11:55:01.601;0;Mov;1;11623;9,85;0;0,7201880059396649;-3,271950437940611;0,7201880059396649;0,09092074194072924;-3,271950437940611;-1,4648884548478653;49,71465193639943;6,0121463667714465
11:55:01.601;0;Mov;1;11624;9,85;0;1,362614849734489;-4,636958010345775;1,362614849734489;0,08254646592083881;-4,636958010345775;-2,807702871791742;65,70635090182195;6,8666646320993685
11:55:01.601;0;Mov;1;11625;9,85;0;1,7585985900448622;-5,717239810632648;1,7585985900448622;-0,0011963255947428648;-5,717239810632648;-1,403851435895871;88,86989959410383;7,324442274239326
11:55:01.608;0;Wrist;1;57965;9,85;-1,1999145958586384;0;0;-0,1985900508228553;-1,1999145958586384;0,478530228583636;32,990508743552965;93,56975005340739;-5,951109347819452
11:55:01.608;0;Wrist;1;57966;9,85;-1,8746422420041504;0;-0,7967528663556321;0,36009400296983246;-1,8746422420041504;-0,7967528663556321;29,053621021149326;88,10693685720389;-5,249183629871517
11:55:01.608;0;Wrist;1;57967;9,85;0;0;3,6978424367503893;0,4258919094000824;0,3828241828669088;3,6978424367503893;15,533921323282572;98,75789666432692;-5,920590838343455
11:55:01.608;0;Wrist;1;57968;9,85;0,9654347480887784;-0,527579612777337;1,4786583824808497;-0,527579612777337;0,9654347480887784;1,4786583824808497;-6,897183141575366;101,35196996978668;0,3967406231879635
11:55:01.608;0;Wrist;1;57969;9,85;0;0;0;-0,0239265114291818;-0,11245460520731605;0,468959635933256;-20,355845820490128;104,4038209173864;3,204443494979705
11:55:01.660;0;Mov;1;11626;9,92;-3,207348952452162;1,2716941301461837;-1,0587481307412947;1,2716941301461837;-3,207348952452162;-1,0587481307412947;24,262215033417768;131,22959074678792;2,2583697012237924
11:55:01.660;0;Mov;1;11627;9,92;-5,463619075594348;-1,833967148731956;2,1964538445692314;-1,833967148731956;-5,463619075594348;2,1964538445692314;77,1813104647969;170,8120975371563;-6,775109103671377
11:55:01.660;0;Mov;1;11628;9,92;-1,1819697122867519;-2,8412732322153387;4,976714377269814;-2,8412732322153387;-1,1819697122867519;4,976714377269814;97,903378398999;176,1223181859798;-10,589922788171025
11:55:01.660;0;Mov;1;11629;9,92;5,314078379161962;-3,3042511806848354;7,532065893276773;-3,3042511806848354;5,314078379161962;7,532065893276773;82,73567918942838;149,05240028077029;-10,803552354503006
11:55:01.660;0;Mov;1;11630;9,92;2,10194398136845;-1,763383916173284;4,623798333689383;-1,763383916173284;2,10194398136845;4,623798333689383;63,17331461531419;60,76235236671041;1,7700735496078372
11:55:01.668;0;Wrist;1;57970;9,92;-1,2513565239036226;0,6771203092097232;0;0,6771203092097232;-1,2513565239036226;0,2823328408249916;-30,18280587176122;110,8737449262978;2,6245918149357585
11:55:01.668;0;Wrist;1;57971;9,92;-2,0289682645649587;1,0946378978850673;3,8725060655537584;1,0946378978850673;-2,0289682645649587;3,8725060655537584;-25,849177526169623;123,9661854915006;-4,608294930875576
11:55:01.668;0;Wrist;1;57972;9,92;-3,1929930932798243;-1,6832301505706961;3,5195897835474717;-1,6832301505706961;-3,1929930932798243;3,5195897835474717;-14,618366039002655;135,8073671681875;-13,611255226294748
11:55:01.668;0;Wrist;1;57973;9,92;-1,4200385248496963;0;0,7142063780823694;0,17227089123107853;-1,4200385248496963;0,7142063780823694;-15,900143436994536;121,58574175237281;-13,245033112582782
11:55:01.668;0;Wrist;1;57974;9,92;-0,8242683425778985;0;1,062337155140843;0,25720999786370435;-0,8242683425778985;1,062337155140843;-12,81777397991882;122,31818597979675;-15,564439832758568
11:55:01.697;0;Wrist;1;57975;9,8;-1,8004699850459303;0,6639606921597949;1,0168767357402264;0,6639606921597949;-1,8004699850459303;1,0168767357402264;-7,782219916379284;121,09744560075686;-19,65392010254219
11:55:01.698;0;Wrist;1;57976;9,8;-1,5265114053392133;0;0,7488998434972686;-0,45938904328287605;-1,5265114053392133;0,7488998434972686;1,8005920590838342;124,91225928525651;-23,438215277565845
11:55:01.698;0;Wrist;1;57977;9,8;-0,6472121699232459;0;0;0,38760947919209876;-0,6472121699232459;0,0933133975541322;5,188146610919523;119,571520126957;-23,773918881801812
11:55:01.698;0;Wrist;1;57978;9,8;-1,0790857369838558;0;0;-0,1770561875562685;-1,0790857369838558;-0,0705832102062479;8,972441785943175;118,90011291848506;-26,032288583025604
11:55:01.698;0;Wrist;1;57979;9,8;-1,1843623157444991;-1,2346080612735375;1,3279213843195898;-1,2346080612735375;-1,1843623157444991;1,3279213843195898;7,080294198431349;112,58278145695364;-25,055696279793693
11:55:01.723;0;Mov;1;11631;10;-3,536338484603412;-1,5312967314676351;0;-1,5312967314676351;-3,536338484603412;-0,3062593522541734;42,51228370006409;39,67406231879635;7,4159978026673175
11:55:01.723;0;Mov;1;11632;10;-1,641358755569628;-1,189147641872921;0;-1,189147641872921;-1,641358755569628;-0,3923948053205206;38,33124790185247;63,295388653218176;6,988738670003357
11:55:01.723;0;Mov;1;11633;10;1,7047639393292031;-1,1951292697302163;1,892587125576037;-1,1951292697302163;1,7047639393292031;1,892587125576037;27,92443617053743;76,021607104709;7,019257179479355
11:55:01.724;0;Mov;1;11634;10;-0,7357402264473403;0;-0,6878872035889767;-0,473744932258446;-0,7357402264473403;-0,6878872035889767;20,142216254158146;48,34131900997955;8,911404766991181
11:55:01.724;0;Mov;1;11635;10;-0,5060457048059023;0;0;-0,25003203847430344;-0,5060457048059023;0,2129459547000412;15,900143436994536;56,61183507797479;6,347849971007416
11:55:01.750;0;Mov;1;11636;9,86;0;0;0;0,08733176969683676;0,07417218990094836;-0,16868191153637807;11,474959562974945;46,44917142246773;5,1576281014435255
11:55:01.750;0;Mov;1;11637;9,86;-0,5646656816499832;-1,7705618457594532;0;-1,7705618457594532;-0,5646656816499832;0,2775475444998016;9,12503433332316;54,597613452558974;5,493331705679495
11:55:01.750;0;Mov;1;11638;9,86;-0,644819506859035;-2,0935697500534074;1,5564195446256905;-2,0935697500534074;-0,644819506859035;1,5564195446256905;6,378368480483413;53,59050263985107;6,927701651051363
11:55:01.750;0;Mov;1;11639;9,86;0;-0,5335612406346324;0;-0,5335612406346324;-0,32300790429395426;-0,3050630207220679;2,1057771538438064;14,313180944242683;5,981627857295449
11:55:01.750;0;Mov;1;11640;9,86;-1,0204657601397749;-0,6316598898091067;0;-0,6316598898091067;-1,0204657601397749;-0,028711815205179753;2,7466658528397474;30,274361400189214;7,599108859523301
11:55:01.771;0;Wrist;1;57980;9,94;-1,0168767357402264;-2,4249518856624044;1,606665290154729;-2,4249518856624044;-1,0168767357402264;1,606665290154729;-1,2207403790398876;91,67760246589556;-20,599993896298106
11:55:01.771;0;Wrist;1;57981;9,94;-1,6258064754554888;-0,8446058892139958;1,0360179210409863;-0,8446058892139958;-1,6258064754554888;1,0360179210409863;-4,974517044587542;67,29331339457381;-18,18903164769433
11:55:01.771;0;Wrist;1;57982;9,94;-1,4619099198507646;0;1,0611408534119693;-0,30745568378627885;-1,4619099198507646;1,0611408534119693;-2,3499252296517836;58,32087160863063;-15,350810266426588
11:55:01.771;0;Wrist;1;57983;9,94;-1,08387094389935;0;0,6711386813524277;-0,36009400296983246;-1,08387094389935;0,6711386813524277;1,0681478316599018;51,21005890072329;-12,695699942014832
11:55:01.771;0;Wrist;1;57984;9,94;-1,3159581286049988;0;0,5204016235847041;-0,22969452164143803;-1,3159581286049988;0,5204016235847041;3,326517532883694;44,31287575914792;-10,864589373455
11:55:01.810;0;Mov;1;11641;9,92;-0,6220892971587267;0;0;-0,47494126379055146;-0,6220892971587267;0,18543046357615894;3,1434064760277107;33,448286385692924;9,643848994415112
11:55:01.810;0;Mov;1;11642;9,92;-0,8553727835932493;0;0;-0,44383679297196876;-0,8553727835932493;-0,3828241828669088;2,685628833887753;30,945768608661155;11,322367015594958
11:55:01.810;0;Mov;1;11643;9,92;-0,7249733320680868;-0,5670583447141941;0;-0,5670583447141941;-0,7249733320680868;-0,04546037097036462;3,448591570787683;41,74932096316416;12,085329752494888
11:55:01.810;0;Mov;1;11644;9,92;-0,5826105652218696;-0,5263832514419996;0;-0,5263832514419996;-0,5826105652218696;0,015552232615238368;3,7537766655476545;41,04739524521622;13,397625659962767
11:55:01.810;0;Mov;1;11645;9,92;-0,5311685775704215;0;0;-0,2476394052133244;-0,5311685775704215;-0,2273018585772271;4,425183874019593;39,643543809320356;14,496292001098666
11:55:01.818;0;Wrist;1;57985;9,93;-1,2238411072878201;0;0;-0,07656483806354335;-1,2238411072878201;0,33736382307275614;5,21866512039552;42,20709860530412;-9,979552598651082
11:55:01.818;0;Wrist;1;57986;9,93;-1,0719076881847591;0;0;-0,14954069643238624;-1,0719076881847591;0,4294808741931669;7,965330973235267;43,214209418012025;-10,101626636555071
11:55:01.819;0;Wrist;1;57987;9,93;-1,1125827814569536;0;0;-0,11365092928861355;-1,1125827814569536;0,48690451950514235;9,094515823847164;41,13895077364422;-10,284737693411055
11:55:01.819;0;Wrist;1;57988;9,93;-1,15804320085757;0;0;-0,1184362330646115;-1,15804320085757;0,41153599062128055;9,24710837122715;39,368877224036375;-10,406811731315043
11:55:01.819;0;Wrist;1;57989;9,93;-0,7213843076685384;0;0;0,23328348643452254;-0,7213843076685384;0,25720999786370435;8,117923520615253;36,83584093752861;-11,20029297769097
11:55:01.841;0;Mov;1;11646;9,82;-0,7094210519539476;0;0;-0,2739585499034852;-0,7094210519539476;0,0346934430624752;4,058961760307627;52,12561418500321;16,17481002227851
11:55:01.841;0;Mov;1;11647;9,82;-0,6077333783799249;-0,5515061242065188;0;-0,5515061242065188;-0,6077333783799249;-0,10168767357402264;3,936887722403638;55,726798303170874;17,94488357188635
11:55:01.841;0;Mov;1;11648;9,82;0;-0,6113224027794733;0;-0,6113224027794733;-0,14714804826979125;0,07776116214484084;4,0284432508316295;60,8844264046144;18,738364818262276
11:55:01.841;0;Mov;1;11649;9,82;0;0;0;-0,3361674915406507;-0,3900021422563097;0,24285409398651844;2,288888210699789;66,01153599658193;18,79940183721427
11:55:01.841;0;Mov;1;11650;9,82;0;0;0;-0,25720999786370435;-0,3218115727618488;0,1794488357188635;2,1362956633198036;63,50901821955016;18,03643910031434
11:55:01.848;0;Wrist;1;57990;9,82;-1,3985046168782618;0;0,6185003323656423;0,013159581658590389;-1,3985046168782618;0,6185003323656423;8,758812219611194;35,09628589739677;-11,719107638782923
11:55:01.848;0;Wrist;1;57991;9,82;-0,9750053407391583;0;0,5048494030770287;-0,19260842296555986;-0,9750053407391583;0,5048494030770287;4,394665364543596;32,86843470564897;-12,146366771446882
11:55:01.849;0;Wrist;1;57992;9,82;-1,597094637897885;0;0,8075197607348857;-0,3170262764366588;-1,597094637897885;0,8075197607348857;6,714072084719382;30,579546494949188;-9,094515823847164
11:55:01.849;0;Wrist;1;57993;9,82;-1,208288827173681;0;0;0,13638112408730582;-1,208288827173681;0,3780388865417188;6,897183141575366;29,847102267525255;-5,829035309915464
11:55:01.849;0;Wrist;1;57994;9,82;-1,3147618268761254;0;0,595770122665334;-0,20337534714804528;-1,3147618268761254;0,595770122665334;5,859553819391461;30,4574724570452;-5,523850215155492
11:55:01.900;0;Mov;1;11651;9,88;0;-0,5718436112361522;0,5479170998069705;-0,5718436112361522;-0,40435806103511157;0,5479170998069705;2,4414807580797753;62,07464827417829;17,120883816034425
11:55:01.900;0;Mov;1;11652;9,88;0;-0,6017517505226295;0;-0,6017517505226295;-0,30386668918996246;0,07297585836884289;0,7629627368999298;49,806207464827416;14,526810510574663
11:55:01.901;0;Mov;1;11653;9,88;-0,5060457048059023;-0,5347575423635059;0;-0,5347575423635059;-0,5060457048059023;0,052638326634361556;0,5798516800439466;50,29450361644337;12,787255470442824
11:55:01.901;0;Mov;1;11654;9,88;0;-0,5610767168568987;0;-0,5610767168568987;-0,49408247889454326;-0,013159581658590389;0,27466658528397475;48,49391155735954;11,108737449262978
11:55:01.902;0;Mov;1;11655;9,88;-0,5359538440923796;-0,6938688314462722;0;-0,6938688314462722;-0,5359538440923796;-0,06579790643024995;1,0681478316599018;46,7238380077517;9,491256447035127
11:55:01.911;0;Wrist;1;57995;9,89;-1,3051911746192817;0;0,6149113675725577;-0,10527665326872311;-1,3051911746192817;0,6149113675725577;5,523850215155492;28,656880397961363;-4,4557023834955904
11:55:01.911;0;Wrist;1;57996;9,89;-1,17718438615833;0;0,5574877520638142;-0,0346934430624752;-1,17718438615833;0,5574877520638142;5,4322946867275;26,825769829401533;-3,326517532883694
11:55:01.911;0;Wrist;1;57997;9,89;-1,2298227351451154;0;0;-0,1543260076591922;-1,2298227351451154;0,4474257577650533;4,058961760307627;25,025177770317697;-3,295999023407697
11:55:01.911;0;Wrist;1;57998;9,89;-1,247767618717002;0;0;-0,010766930701942408;-1,247767618717002;0,4270882409321879;-0,24414807580797754;23,224585711233864;-4,852443006683553
11:55:01.911;0;Wrist;1;57999;9,89;-1,1508652712714011;0;0;0;-1,1508652712714011;0,42110661307489244;-5,920590838343455;22,705771050141912;-6,256294442579424
11:55:01.961;0;Mov;1;11656;9,93;-0,5180089605204932;-0,7656483657338176;0;-0,7656483657338176;-0,5180089605204932;0,0119632557145909;1,5259254737998595;44,67909787285989;8,117923520615253
11:55:01.961;0;Mov;1;11657;9,93;-0,5861995300149541;-0,5873958913502915;0;-0,5873958913502915;-0,5861995300149541;-0,06699423051154745;2,2278511917477952;41,627246925260174;7,324442274239326
11:55:01.961;0;Mov;1;11658;9,93;-0,5263832514419996;-0,6292672863513596;0;-0,6292672863513596;-0,5263832514419996;-0,1387737722499008;2,8687398907437363;39,85717337565233;7,507553331095309
11:55:01.961;0;Mov;1;11659;9,93;-0,5132236939985351;-0,5993591470648824;0;-0,5993591470648824;-0,5132236939985351;-0,14714804826979125;3,4180730613116856;38,453321939756464;7,904293954283273
11:55:01.961;0;Mov;1;11660;9,93;-0,5335612406346324;-0,6101260414441358;0;-0,6101260414441358;-0,5335612406346324;-0,15552232428968168;3,9979247413556322;37,385174108096564;7,17184972685934
11:55:01.971;0;Wrist;1;58000;9,95;-0,8721213654362621;0;0;-0,18782311173875393;-0,8721213654362621;0,4581927117507706;-9,24710837122715;20,87466048158208;-6,103701895199438
11:55:01.971;0;Wrist;1;58001;9,95;-1,0886562700277718;0;0;-0,05024567474636257;-1,0886562700277718;0,38402051439901425;-9,186071352275155;17,303994872890406;-4,791405987731559
11:55:01.971;0;Wrist;1;58002;9,95;-1,0611408534119693;0;0;0,12800683316579944;-1,0611408534119693;0,3780388865417188;-11,810663167210913;15,839106418042542;-5,096591082491531
11:55:01.971;0;Wrist;1;58003;9,95;-0,9462935627880185;0;0;0,22849819010933256;-0,9462935627880185;0,15911130398438214;-12,665181432538835;13,061922055726798;-5,554368724631489
11:55:01.971;0;Wrist;1;58004;9,95;-1,1819697122867519;0;0;0,1818414838814585;-1,1819697122867519;0,28113650929288614;-12,024292733542893;8,117923520615253;-6,653035065767388
11:55:01.991;0;Mov;1;11661;9,84;0;-0,7847896106410412;0;-0,7847896106410412;-0,4199102815427869;-0,2990813928647725;4,486220892971588;35,46250801110874;6,40888698995941
11:55:01.991;0;Mov;1;11662;9,84;0;-0,7213843076685384;0;-0,7213843076685384;-0,38760947919209876;-0,3062593522541734;4,425183874019593;34,45539719840083;5,859553819391461
11:55:01.991;0;Mov;1;11663;9,84;0;-0,6723349830813014;0;-0,6723349830813014;-0,26199529418889433;-0,29549242807168796;3,8758507034516434;32,837916196172976;4,211554307687613
11:55:01.991;0;Mov;1;11664;9,84;0;-0,7237769707327494;0;-0,7237769707327494;-0,31582994490455335;-0,3971801016457106;3,69273964659566;31,006805627613147;4,058961760307627
11:55:01.991;0;Mov;1;11665;9,84;0;-0,7512924469550157;0;-0,7512924469550157;-0,3612903345019379;-0,4055543627639851;4,333628345591602;28,47376934110538;3,295999023407697
11:55:02.008;0;Wrist;1;58005;9,88;-1,2609271761604663;0;0;0,05144199882766007;-1,2609271761604663;0,2464430736812189;-13,397625659962767;6,469924008911405;-7,354960783715323
11:55:02.008;0;Wrist;1;58006;9,88;-1,3279213843195898;0;0;-0,2560136663315989;-1,3279213843195898;0,4055543627639851;-15,686513870662557;5,462813196203498;-7,324442274239326
11:55:02.008;0;Wrist;1;58007;9,88;-1,7155308933149205;-1,0491775976973785;0,825464644306772;-1,0491775976973785;-1,7155308933149205;0,825464644306772;-16,418958098086488;8,758812219611194;-2,9297769096957307
11:55:02.008;0;Wrist;1;58008;9,88;-0,7716299935911131;0;0;0,4665669728690451;-0,7716299935911131;-0,18064516725096896;-17,212439344462418;14,252143925290689;2,807702871791742
11:55:02.008;0;Wrist;1;58009;9,88;-1,2872462910473952;0;0;-0,10049134949272515;-1,2872462910473952;0,239265114291818;-15,564439832758568;5,401776177251503;-0,640888698995941
11:55:02.050;0;Mov;1;11666;9,88;0;-0,7034394240966522;0;-0,7034394240966522;-0,36487929929502244;-0,43306986878948334;4,7303689687795645;25,513473921933652;2,288888210699789
11:55:02.050;0;Mov;1;11667;9,88;0;-0,7453108190977202;0;-0,7453108190977202;-0,3923948053205206;-0,3935911070493942;4,4557023834955904;22,583697012237923;1,4954069643238623
11:55:02.050;0;Mov;1;11668;9,88;0;-0,7716299935911131;0;-0,7716299935911131;-0,49049348429822687;-0,412732322153386;3,967406231879635;18,70784630878628;1,1291848506118962
11:55:02.050;0;Mov;1;11669;9,88;0;-0,7512924469550157;0;-0,7512924469550157;-0,4546037171544542;-0,37923521807382427;3,1128879665517135;14,55732902005066;0,8545182653279214
11:55:02.050;0;Mov;1;11670;9,88;0;-0,701046820638905;0;-0,701046820638905;-0,47494126379055146;-0,4091433573603015;2,685628833887753;11,62755211035493;0,9460737937559129
11:55:02.059;0;Wrist;1;58010;9,89;-1,13052766502884;0;0;-0,021533861403884816;-1,13052766502884;0,1914120914334544;-16,998809778130436;6,530961027863399;-0,6103701895199438
11:55:02.059;0;Wrist;1;58011;9,89;-1,003717178296762;0;0;-0,00837427881394343;-1,003717178296762;0,10049134949272515;-17,029328287606432;4,547257911923582;-1,9531846064638203
11:55:02.059;0;Wrist;1;58012;9,89;-1,2238411072878201;0;0;-0,3182226079687643;-1,2238411072878201;0,46058534501174964;-15,259254737998596;4,577776421399578;-1,4343699453718681
11:55:02.059;0;Wrist;1;58013;9,89;-0,9690237128818628;0;0;0,12322153684060945;-0,9690237128818628;0,10168767357402264;-12,878810998870815;7,110812707907346;0,5188146610919523
11:55:02.059;0;Wrist;1;58014;9,89;-1,0719076881847591;0;0;-0,026319163317180778;-1,0719076881847591;0,17107455969897306;-10,52888576921903;3,2654805139316996;-1,4954069643238623
11:55:02.110;0;Mov;1;11671;9,94;0;-0,6986541575746941;0;-0,6986541575746941;-0,48211922317995237;-0,36846829389133884;1,9837031159398175;7,93481246375927;1,2207403790398876
11:55:02.110;0;Mov;1;11672;9,94;0;-0,7142063780823694;0;-0,7142063780823694;-0,49049348429822687;-0,3816278513348033;1,4343699453718681;4,1810357982116155;1,1902218695638904
11:55:02.111;0;Mov;1;11673;9,94;0;-0,6747276461455123;0;-0,6747276461455123;-0,46776330440115055;-0,31582994490455335;0,9765923032319102;1,098666341135899;1,1597033600878932
11:55:02.111;0;Mov;1;11674;9,94;0;-0,6986541575746941;0;-0,6986541575746941;-0,410339688892407;-0,2703695851104007;0,3357036042359691;-1,9531846064638203;1,4648884548478653
11:55:02.111;0;Mov;1;11675;9,94;0;-0,7955565050202948;0;-0,7955565050202948;-0,3265968988902707;-0,11604358490201651;-0,5188146610919523;-4,791405987731559;1,3428144169438765
11:55:02.118;0;Wrist;1;58015;9,94;-1,104208550141911;0;0;-0,1292031646979049;-1,104208550141911;0,23328348643452254;-8,545182653279214;1,9837031159398175;-2,166814172795801
11:55:02.118;0;Wrist;1;58016;9,94;-1,0635334568697166;0;0;-0,07776116214484084;-1,0635334568697166;0,23089083827192755;-6,4394054994354075;1,9531846064638203;-2,1057771538438064
11:55:02.119;0;Wrist;1;58017;9,94;-1,1054048518707846;0;0;-0,05742363041035951;-1,1054048518707846;0,30745568378627885;-4,608294930875576;1,403851435895871;-1,7700735496078372
11:55:02.119;0;Wrist;1;58018;9,94;-1,116171805856502;0;0;-0,19739371929074984;-1,116171805856502;0,468959635933256;-3,173924985503708;0,9460737937559129;-1,6785180211798456
11:55:02.119;0;Wrist;1;58019;9,94;-1,1448836434141056;0;0,5144199957274087;-0,30386668918996246;-1,1448836434141056;0,5144199957274087;-1,3733329264198737;0,5188146610919523;-1,4343699453718681
11:55:02.141;0;Mov;1;11676;9,85;0;-0,8386242613567003;0;-0,8386242613567003;-0,2153386028626362;-0,10168767357402264;-1,6479995117038484;-7,263405255287331;0,24414807580797754
11:55:02.141;0;Mov;1;11677;9,85;0;-0,6902798666531876;0;-0,6902798666531876;-0,14475540010719626;-0,33257852674756616;-2,6245918149357585;-10,22370067445906;-1,6479995117038484
11:55:02.141;0;Mov;1;11678;9,85;0;-0,6101260414441358;0;-0,6101260414441358;-0,3385601546048616;-0,45938904328287605;-3,7537766655476545;-13,428144169438765;-3,3875545518356884
11:55:02.141;0;Mov;1;11679;9,85;0;-0,6208929954298532;0;-0,6208929954298532;-0,35650503817674795;-0,37564622347750787;-4,303109836115604;-16,05273598437452;-4,058961760307627
11:55:02.141;0;Mov;1;11680;9,85;0;0;0;-0,4952788104266488;-0,4294808741931669;-0,3134373116435743;-4,425183874019593;-17,73125400555437;-4,119998779259621
11:55:02.148;0;Wrist;1;58020;9,84;-1,2238411072878201;0;0;-0,2440504255186239;-1,2238411072878201;0,17825251908837397;1,1902218695638904;-0,15259254737998595;-1,281777397991882
11:55:02.149;0;Wrist;1;58021;9,84;-1,1054048518707846;0;0;-0,01794488357188635;-1,1054048518707846;0,06220893046095347;2,2583697012237924;0,15259254737998595;-1,9837031159398175
11:55:02.149;0;Wrist;1;58022;9,84;-1,1412946190145574;0;0;-0,025122837373181287;-1,1412946190145574;0,027515489261180266;3,4180730613116856;0,4882961516159551;-2,7771843623157446
11:55:02.149;0;Wrist;1;58023;9,84;-1,1640248287148656;0;0;0,058619954491657;-1,1640248287148656;0,11365092928861355;4,577776421399578;0,3357036042359691;-2,533036286507767
11:55:02.149;0;Wrist;1;58024;9,84;-1,1365092928861353;0;0;0,05742363041035951;-1,1365092928861353;0,22012391408944212;5,554368724631489;0,5798516800439466;-2,197332682271798
11:55:02.200;0;Mov;1;11681;9,89;0;0;0;-0,43306986878948334;-0,4964751121555223;-0,29309976500747703;-4,425183874019593;-18,82992034669027;-4,303109836115604
11:55:02.200;0;Mov;1;11682;9,89;-0,541935471949675;0;0;-0,4139286536854915;-0,541935471949675;-0,21773125102523117;-4,150517288735618;-18,982512894070254;-3,7537766655476545
11:55:02.200;0;Mov;1;11683;9,89;-0,5778252390934476;0;0;-0,4091433573603015;-0,5778252390934476;-0,12322153684060945;-4,211554307687613;-18,463698232978302;-2,838221381267739
11:55:02.200;0;Mov;1;11684;9,89;-0,5168126587916196;0;0;-0,40794702582819603;-0,5168126587916196;-0,06340525826765496;-3,9063692129276406;-17,365031891842403;-2,075258644367809
11:55:02.200;0;Mov;1;11685;9,89;0;0;0;-0,39119847378841516;-0,47135229899746695;0,0011963255947428648;-3,845332193975646;-16,266365550706503;-1,6785180211798456
11:55:02.208;0;Wrist;1;58025;9,89;-1,1616321060441908;0;0;-0,00598162785729545;-1,1616321060441908;0,26917325357829525;6,74459059419538;0,4272591326639607;-1,6479995117038484
11:55:02.209;0;Wrist;1;58026;9,89;-1,1855586174733725;0;0;0,02990813928647725;-1,1855586174733725;0,28472550388920254;7,782219916379284;-0,5493331705679495;-1,3122959074678793
11:55:02.209;0;Wrist;1;58027;9,89;-1,2178594794305246;0;0;0,00837427881394343;-1,2178594794305246;0,4139286536854915;8,02636799218726;-1,7700735496078372;-0,8545182653279214
11:55:02.209;0;Wrist;1;58028;9,89;-1,1999145958586384;0;0;-0,01674855762788686;-1,1999145958586384;0,4928861473624378;8,606219672231209;-2,1057771538438064;-0,09155552842799158
11:55:02.209;0;Wrist;1;58029;9,89;-1,1927366662724692;0;0,5048494030770287;-0,01674855762788686;-1,1927366662724692;0,5048494030770287;9,24710837122715;-2,044740134891812;0,3967406231879635
11:55:02.264;0;Mov;1;11686;9,96;0;0;0;-0,4881008510372478;-0,43187353725737787;-0,0346934430624752;-3,7842951750236518;-14,954069643238624;-1,2207403790398876
11:55:02.264;0;Mov;1;11687;9,96;0;-0,5395428684919279;0;-0,5395428684919279;-0,38402051439901425;-0,014355907602589877;-3,7537766655476545;-13,702810754722739;-1,098666341135899
11:55:02.264;0;Mov;1;11688;9,96;0;-0,5084383678701132;0;-0,5084383678701132;-0,33257852674756616;0,013159581658590389;-4,1810357982116155;-13,763847773674733;-1,73955504013184
11:55:02.264;0;Mov;1;11689;9,96;0;-0,5598803555215613;0;-0,5598803555215613;-0,2799401777607807;-0,08852809377813425;-4,760887478255562;-14,465773491622668;-2,4414807580797753
11:55:02.264;0;Mov;1;11690;9,96;0;0;0;-0,47254860072634053;-0,2548173646027253;-0,19978636745334483;-4,974517044587542;-15,198217719046601;-3,357036042359691
11:55:02.270;0;Wrist;1;58030;9,95;-1,1867550384151737;0;0,5060457048059023;-0,06819056204365291;-1,1867550384151737;0,5060457048059023;9,7964415417951;-2,075258644367809;0,7629627368999298
11:55:02.270;0;Wrist;1;58031;9,95;-1,2118778515732291;0;0;0,01794488357188635;-1,2118778515732291;0,3098483170472579;10,43733024079104;-2,9602954191717274;1,1902218695638904
11:55:02.270;0;Wrist;1;58032;9,95;-1,1508652712714011;0;0;0,05503097852236053;-1,1508652712714011;0,12681051653530992;10,010071108127079;-4,913480025635548;1,5259254737998595
11:55:02.270;0;Wrist;1;58033;9,95;-0,9857722947248756;0;0;0,3864131774632252;-0,9857722947248756;0,058619954491657;8,819849238563188;-5,035554063539537;1,6479995117038484
11:55:02.270;0;Wrist;1;58034;9,95;-0,9869685964537492;0;0;0,3852168459311197;-0,9869685964537492;0,1292031646979049;6,988738670003357;-4,211554307687613;1,2207403790398876
11:55:02.291;0;Mov;1;11691;9,86;0;0;0;-0,3971801016457106;-0,3624866660340434;-0,236872466129223;-4,974517044587542;-15,503402813806574;-4,547257911923582
11:55:02.291;0;Mov;1;11692;9,86;0;0;0;-0,40675069429609056;-0,46776330440115055;-0,30386668918996246;-4,913480025635548;-15,961180455946531;-4,760887478255562
11:55:02.291;0;Mov;1;11693;9,86;-0,5407391702208014;0;0;-0,30386668918996246;-0,5407391702208014;-0,23089083827192755;-4,608294930875576;-16,693624683370466;-4,211554307687613
11:55:02.291;0;Mov;1;11694;9,86;-0,5826105652218696;0;0;-0,3517197120483261;-0,5826105652218696;-0,28472550388920254;-4,150517288735618;-16,541032135990477;-3,204443494979705
11:55:02.292;0;Mov;1;11695;9,86;-0,5778252390934476;0;0;-0,3194189395008698;-0,5778252390934476;-0,16030763551648763;-3,6011841181676685;-16,357921079134496;-1,9531846064638203
11:55:02.298;0;Wrist;1;58035;9,85;-1,0025208765678884;0;0;0,14236275194460127;-1,0025208765678884;0,23089083827192755;5,249183629871517;-3,6011841181676685;0,3357036042359691
11:55:02.299;0;Wrist;1;58036;9,85;-1,097030620555742;0;0;0,12800683316579944;-1,097030620555742;0,31104464857936337;4,4557023834955904;-3,9979247413556322;-0,36622211371196634
11:55:02.299;0;Wrist;1;58037;9,85;-1,1317239667577135;0;0;0,019141209515885837;-1,1317239667577135;0,3816278513348033;4,211554307687613;-4,699850459303567;-0,793481246375927
11:55:02.299;0;Wrist;1;58038;9,85;-1,1484725486007263;0;0;-0,06699423051154745;-1,1484725486007263;0,4306772057252724;4,394665364543596;-5,066072573015534;-0,8850367748039186
11:55:02.299;0;Wrist;1;58039;9,85;-1,250160222174749;0;0;-0,01794488357188635;-1,250160222174749;0,48211922317995237;4,974517044587542;-5,7374797814874725;-0,27466658528397475
11:55:02.351;0;Mov;1;11696;9,9;-0,5455244963492233;0;0;-0,415124985217597;-0,5455244963492233;-0,08972441785943175;-3,2349620044557024;-16,113773003326518;-0,7324442274239327
11:55:02.351;0;Mov;1;11697;9,9;0;-0,5467207980780968;0;-0,5467207980780968;-0,417517618478576;-0,07656483806354335;-3,051850947599719;-15,533921323282572;-0,15259254737998595
11:55:02.351;0;Mov;1;11698;9,9;0;-0,5562913907284768;0;-0,5562913907284768;-0,3265968988902707;-0,06340525826765496;-2,9602954191717274;-15,900143436994536;-0,3051850947599719
11:55:02.351;0;Mov;1;11699;9,9;0;-0,5861995300149541;0;-0,5861995300149541;-0,22132023071993165;-0,06220893046095347;-3,2654805139316996;-16,571550645466477;-1,0071108127079074
11:55:02.351;0;Mov;1;11700;9,9;0;-0,6065370766510514;0;-0,6065370766510514;-0,117239908983314;-0,13997008888039034;-3,5401470992156745;-17,761772515030366;-2,410962248603778
11:55:02.359;0;Wrist;1;58040;9,9;-1,2728904318750571;0;0,5443281350138859;-0,22251656225203711;-1,2728904318750571;0,5443281350138859;5,951109347819452;-6,74459059419538;0,7324442274239327
11:55:02.359;0;Wrist;1;58041;9,9;-1,2788720597323526;0;0,6436231455236976;-0,3517197120483261;-1,2788720597323526;0,6436231455236976;7,446516312143315;-8,056886501663259;2,288888210699789
11:55:02.359;0;Wrist;1;58042;9,9;-1,2393932681890316;0;0,6208929954298532;-0,48331555471205784;-1,2393932681890316;0,6208929954298532;9,704886013367107;-10,315256202887051;4,303109836115604
11:55:02.359;0;Wrist;1;58043;9,9;-1,1448836434141056;0;0;-0,3947874385814997;-1,1448836434141056;0,4091433573603015;11,963255714590899;-13,91644032105472;6,74459059419538
11:55:02.359;0;Wrist;1;58044;9,9;-1,0719076881847591;0;0;0,1064729773500206;-1,0719076881847591;-0,10288399765532014;12,634662923062837;-18,219550157170325;8,667256691183203
11:55:02.411;0;Mov;1;11701;9,95;0;-0,8087161220702231;0;-0,8087161220702231;-0,10527665326872311;-0,08613544561553926;-3,5706656086916717;-19,196142460402235;-4,913480025635548
11:55:02.411;0;Mov;1;11702;9,95;0;-0,8505875170712912;0;-0,8505875170712912;-0,1315958128604999;-0,20217903051755579;-3,8758507034516434;-22,15643787957396;-7,782219916379284
11:55:02.412;0;Mov;1;11703;9,95;0;-0,7333475633831293;0;-0,7333475633831293;-0,2476394052133244;-0,234479817966628;-3,814813684499649;-24,65895565660573;-10,742515335551012
11:55:02.412;0;Mov;1;11704;9,95;0;-0,6986541575746941;0;-0,6986541575746941;-0,3935911070493942;-0,2129459547000412;-3,4180730613116856;-27,37510299996948;-12,72621845149083
11:55:02.412;0;Mov;1;11705;9,95;-0,6555864012382885;-0,6089297397152623;0;-0,6089297397152623;-0,6555864012382885;-0,32061527103297527;-2,410962248603778;-28,626361888485366;-13,611255226294748
11:55:02.423;0;Wrist;1;58045;9,96;-0,9175817252304147;0;0;0,2942960965395825;-0,9175817252304147;0,06579790643024995;11,810663167210913;-20,142216254158146;8,636738181707205
11:55:02.423;0;Wrist;1;58046;9,96;-0,9104037956442458;0;0;0,4665669728690451;-0,9104037956442458;-0,31224098011146884;10,589922788171025;-21,05777153843806;7,232886745811334
11:55:02.423;0;Wrist;1;58047;9,96;-0,9163854235015412;0;0;0,30745568378627885;-0,9163854235015412;0,12561418500320445;8,819849238563188;-19,501327555162206;4,821924497207556
11:55:02.423;0;Wrist;1;58048;9,96;-0,6878872035889767;0;0;0,11365092928861355;-0,6878872035889767;0,3935911070493942;7,538071840571306;-17,05984679708243;3,204443494979705
11:55:02.423;0;Wrist;1;58049;9,96;-0,8446058892139958;0;0,5299722162350841;-0,21055330653744622;-0,8446058892139958;0,5299722162350841;8,453627124851222;-17,94488357188635;2,288888210699789
11:55:02.441;0;Mov;1;11706;9,87;-0,7465071804330576;-0,6663533552240058;0;-0,6663533552240058;-0,7465071804330576;-0,1339884610230949;-1,6479995117038484;-28,59584337900937;-13,428144169438765
11:55:02.442;0;Mov;1;11707;9,87;-0,9104037956442458;-0,6185003323656423;0;-0,6185003323656423;-0,9104037956442458;-0,12441786092190694;-1,4954069643238623;-35,798211615344705;-11,291848506118962
11:55:02.442;0;Mov;1;11708;9,87;-0,8481948540070803;-0,8637470745147557;0;-0,8637470745147557;-0,8481948540070803;0,08015381775824382;-0,7019257179479355;-36,255989257484664;-9,67436750389111
11:55:02.442;0;Mov;1;11709;9,87;-0,8266610056421094;-1,022858363597522;0;-1,022858363597522;-0,8266610056421094;0,13757744071779535;-0,4882961516159551;-40,31495101779229;-9,88799707022309
11:55:02.442;0;Mov;1;11710;9,87;-0,7213843076685384;-1,2728904318750571;0;-1,2728904318750571;-0,7213843076685384;0,23089083827192755;0,36622211371196634;-44,434949797051914;-10,956144901882992
11:55:02.448;0;Wrist;1;58050;9,86;-0,8027344942129276;0;0,6220892971587267;-0,10527665326872311;-0,8027344942129276;0,6220892971587267;7,965330973235267;-20,142216254158146;2,1057771538438064
11:55:02.449;0;Wrist;1;58051;9,86;-0,937919271866512;0;0,8123050868633076;-0,4857081879730369;-0,937919271866512;0,8123050868633076;8,636738181707205;-22,095400860621968;2,288888210699789
11:55:02.449;0;Wrist;1;58052;9,86;-0,8326426334994049;-0,7357402264473403;0,9367229701376385;-0,7357402264473403;-0,8326426334994049;0,9367229701376385;8,941923276467177;-26,886806848353526;3,1434064760277107
11:55:02.449;0;Wrist;1;58053;9,86;-0,7907712384983367;-0,7823969475768303;0,9522751906453139;-0,7823969475768303;-0,7907712384983367;0,9522751906453139;9,949034089175084;-33,87554551835689;5,066072573015534
11:55:02.449;0;Wrist;1;58054;9,86;-1,927280590990936;-0,6531937977805414;0,818286714720603;-0,6531937977805414;-1,927280590990936;0,818286714720603;9,399700918607135;-41,13895077364422;7,354960783715323
11:55:02.501;0;Mov;1;11711;9,91;0;-1,592309311769463;0;-1,592309311769463;-0,24165777735602892;0,43546250205046233;-0,030518509475997192;-49,501022370067446;-11,963255714590899
11:55:02.501;0;Mov;1;11712;9,91;0,537150205427717;-1,0204657601397749;0;-1,0204657601397749;0,537150205427717;0,1770561875562685;-0,061037018951994385;-61,12857448042238;-16,63258766441847
11:55:02.501;0;Mov;1;11713;9,91;0;-0,6424268437948241;0;-0,6424268437948241;-0,24524674214911343;0,43306986878948334;2,7466658528397474;-62,227240821558276;-20,32532731101413
11:55:02.501;0;Mov;1;11714;9,91;-0,8733176671651357;0;0;0,3349711600085452;-0,8733176671651357;-0,0023926511894857296;0,8239997558519242;-68,57509079256569;-20,23377178258614
11:55:02.501;0;Mov;1;11715;9,91;0;1,5516343377101962;0;1,5516343377101962;-0,473744932258446;-0,1794488357188635;-1,3733329264198737;-67,29331339457381;-15,045625171666616
11:55:02.519;0;Wrist;1;58055;9,95;-2,113907237083041;-0,9044221677869503;0,9498825275811029;-0,9044221677869503;-2,113907237083041;0,9498825275811029;1,6479995117038484;-48,127689443647576;11,810663167210913
11:55:02.519;0;Wrist;1;58056;9,95;-0,6819055757316813;-1,0539628046128726;0;-1,0539628046128726;-0,6819055757316813;0,37923521807382427;-13,183996093630787;-58,076723532822655;16,113773003326518
11:55:02.519;0;Wrist;1;58057;9,95;-0,710617413289285;0;0;0,1435590685750908;-0,710617413289285;0,236872466129223;-20,783104953154087;-70,22309030426953;16,05273598437452
11:55:02.519;0;Wrist;1;58058;9,95;-0,9139927604373302;0;0;0,4534073856223487;-0,9139927604373302;0,26558428878521073;-20,661030915250098;-73,18338572344126;13,946958830530717
11:55:02.519;0;Wrist;1;58059;9,95;0;0;0,8135013885921811;0,44503312450407423;-0,39837643317781607;0,8135013885921811;-13,763847773674733;-71,01657155064547;10,315256202887051
11:55:02.538;0;Wrist;1;58060;9,83;-0,8960478768654438;-0,5538987276642658;1,1472762468718527;-0,5538987276642658;-0,8960478768654438;1,1472762468718527;-4,272591326639607;-75,53331095309305;10,43733024079104
11:55:02.538;0;Wrist;1;58061;9,83;0;-1,1018158274712364;1,235804363002411;-1,1018158274712364;-0,28113650929288614;1,235804363002411;-2,075258644367809;-91,3113803521836;14,496292001098666
11:55:02.538;0;Wrist;1;58062;9,83;-0,7584704361476485;0;0,6220892971587267;-0,11125828112601856;-0,7584704361476485;0,6220892971587267;0,7629627368999298;-111,66722617267372;17,761772515030366
11:55:02.538;0;Wrist;1;58063;9,83;-1,538474661053804;0;1,26212347788934;-0,12202521275931195;-1,538474661053804;1,26212347788934;1,8311105685598315;-119,602038636433;16,022217474898525
11:55:02.538;0;Wrist;1;58064;9,83;-1,841145078318125;0;1,5145481496246223;0,05144199882766007;-1,841145078318125;1,5145481496246223;-7,293923764763329;-126,86544389172033;12,573625904110843
11:55:02.561;0;Mov;1;11716;9,95;-1,0862636665700247;0;0;-0,08613544561553926;-1,0862636665700247;0,3421491193979461;-1,7090365306558428;-42,909024323252055;-6,19525742362743
11:55:02.561;0;Mov;1;11717;9,95;0;-0,8146977499275185;0,6950651927816095;-0,8146977499275185;-0,36487929929502244;0,6950651927816095;-8,758812219611194;-39,368877224036375;-2,7466658528397474
11:55:02.561;0;Mov;1;11718;9,95;0;-0,6376415176664022;0;-0,6376415176664022;-0,42828457246429336;0,3816278513348033;-17,883846552934354;-38,57539597766045;-1,5259254737998595
11:55:02.561;0;Mov;1;11719;9,95;-0,8242683425778985;0;0;-0,2631916257209998;-0,8242683425778985;-0,32061527103297527;-23,407696768089846;-40,2233954893643;-1,2512588885158848
11:55:02.561;0;Mov;1;11720;9,95;-0,6280709250160222;0;0;-0,15552232428968168;-0,6280709250160222;-0,4534073856223487;-24,201178014465775;-33,6924344615009;-1,403851435895871
11:55:02.590;0;Mov;1;11721;9,94;0;0;0;-0,4426404614398633;-0,4306772057252724;0,26438795725310527;-26,032288583025604;-26,612140263069552;-0,4882961516159551
11:55:02.590;0;Mov;1;11722;9,94;0;-0,937919271866512;0,588592193079165;-0,937919271866512;-0,48331555471205784;0,588592193079165;-28,229621265297403;-28,351695303201392;-0,21362956633198035
11:55:02.590;0;Mov;1;11723;9,94;0,6220892971587267;-0,9283486792161321;1,2992095467619862;-0,9283486792161321;0,6220892971587267;1,2992095467619862;-29,938657795953247;-39,67406231879635;1,2512588885158848
11:55:02.590;0;Mov;1;11724;9,94;1,0384106437116611;-0,5754326356357006;1,6461439624851222;-0,5754326356357006;1,0384106437116611;1,6461439624851222;-32,624286629840995;-66,53035065767388;5,371257667775506
11:55:02.590;0;Mov;1;11725;9,94;0;-0,7764153197195349;0;-0,7764153197195349;-0,17346720786156805;-0,18782311173875393;-32,593768120365;-83,34604937894834;3,3875545518356884
11:55:02.598;0;Wrist;1;58065;9,93;-0,8673360393078402;0;0,9343303070734276;0,027515489261180266;-0,8673360393078402;0,9343303070734276;-18,768883327738273;-128,2387768181402;11,993774224066897
11:55:02.598;0;Wrist;1;58066;9,93;-0,7429182156399732;0;1,0946378978850673;-0,354112375112537;-0,7429182156399732;1,0946378978850673;-22,644734031189916;-126,56025879696035;11,41392254402295
11:55:02.598;0;Wrist;1;58067;9,93;-1,4858364312799464;0;1,3614185480056153;-0,40794702582819603;-1,4858364312799464;1,3614185480056153;-21,881771294289987;-123,99670400097659;10,193182164983062
11:55:02.598;0;Wrist;1;58068;9,93;-2,182097985396893;0;2,0277718436231575;-0,4223029446069979;-2,182097985396893;2,0277718436231575;-17,94488357188635;-122,47077852717673;5,951109347819452
11:55:02.599;0;Wrist;1;58069;9,93;-2,5158727244636374;0;0,8146977499275185;0,4581927117507706;-2,5158727244636374;0,8146977499275185;-6,530961027863399;-116,2144840845973;3,1434064760277107
11:55:02.656;0;Mov;1;11726;9,97;0;-0,6567827625736259;0,6316598898091067;-0,6567827625736259;0,25003203847430344;0,6316598898091067;-32,19702749717704;-81,39286477248451;1,8616290780358287
11:55:02.656;0;Mov;1;11727;9,97;0,525186949713126;0;0,6771203092097232;-0,43187353725737787;0,525186949713126;0,6771203092097232;-32,95999023407697;-89,1140476699118;3,6011841181676685
11:55:02.656;0;Mov;1;11728;9,97;0;-1,3219397564622943;1,116171805856502;-1,3219397564622943;-0,3469344157231361;1,116171805856502;-38,300729392376475;-85,05508590960417;3,8758507034516434
11:55:02.656;0;Mov;1;11729;9,97;0;-0,9450972014526811;0;-0,9450972014526811;-0,3888058107242042;0,08135014183954131;-39,76561784722434;-84,90249336222419;-0,24414807580797754
11:55:02.656;0;Mov;1;11730;9,97;-0,5180089605204932;0;0;-0,18423414694566942;-0,5180089605204932;0,01794488357188635;-37,75139622180853;-82,67464217047639;-1,8921475875118259
11:55:02.660;0;Wrist;1;58070;9,96;-1,0683187829981384;0;0;0,2679769220461898;-1,0683187829981384;-0,3708609271523179;9,67436750389111;-101,96234015930662;2,166814172795801
11:55:02.660;0;Wrist;1;58071;9,96;-0,7381328895115512;0,5897884948080385;-0,8601581097216712;0,5897884948080385;-0,7381328895115512;-0,8601581097216712;12,237922299874874;-93,99700918607135;2,075258644367809
11:55:02.660;0;Wrist;1;58072;9,96;-0,9343303070734276;0;0;0,3696645956202124;-0,9343303070734276;0,010766930701942408;11,322367015594958;-88,44264046143986;0,18311105685598317
11:55:02.660;0;Wrist;1;58073;9,96;-1,2070925254448073;0;0;0,019141209515885837;-1,2070925254448073;0,11365092928861355;12,024292733542893;-81,42338328196051;-0,7019257179479355
11:55:02.660;0;Wrist;1;58074;9,96;-1,1412946190145574;0,7046357854319895;-1,2094851289025543;0,7046357854319895;-1,1412946190145574;-1,2094851289025543;13,397625659962767;-73,24442274239325;0,15259254737998595
11:55:02.714;0;Mov;1;11731;9,95;-0,8075197607348857;0;0;-0,22132023071993165;-0,8075197607348857;-0,28472550388920254;-33,32621234778893;-77,60856959746086;-2,807702871791742
11:55:02.714;0;Mov;1;11732;9,95;-0,541935471949675;-0,7189917042107914;0;-0,7189917042107914;-0,541935471949675;-0,34932707878734703;-27,80236213263344;-69,5211645863216;-3,7232581560716573
11:55:02.715;0;Mov;1;11733;9,95;0;0;-0,5287759145062105;-0,33736382307275614;-0,43306986878948334;-0,5287759145062105;-22,8278450880459;-61,76946317941832;-3,845332193975646
11:55:02.715;0;Mov;1;11734;9,95;-0,7405255525757622;0;-0,9714163759460738;0,11484726082071901;-0,7405255525757622;-0,9714163759460738;-19,47080904568621;-57,92413098544267;-3,448591570787683
11:55:02.715;0;Mov;1;11735;9,95;-0,9714163759460738;0;-1,4308053596224861;0,04306772280776963;-0,9714163759460738;-1,4308053596224861;-16,08325449385052;-52,095095675527205;-2,7466658528397474
11:55:02.725;0;Wrist;1;58075;9,86;-0,717795342875454;0,8685324006431776;-1,1221534337137975;0,8685324006431776;-0,717795342875454;-1,1221534337137975;8,6977752006592;-67,96472060304575;-1,1291848506118962
11:55:02.725;0;Wrist;1;58076;9,86;0;0,8063234590060121;-2,100747798852504;0,8063234590060121;-0,3505234103194525;-2,100747798852504;4,791405987731559;-55,23850215155492;-0,6714072084719382
11:55:02.725;0;Wrist;1;58077;9,86;0;1,0204657601397749;-2,529032401120029;1,0204657601397749;-0,056227302603658026;-2,529032401120029;4,0284432508316295;-46,41865291299173;-0,061037018951994385
11:55:02.725;0;Wrist;1;58078;9,86;0;0,8936552138012329;-2,1785089609973447;0,8936552138012329;-0,3086520153183844;-2,1785089609973447;0,4882961516159551;-37,385174108096564;1,6785180211798456
11:55:02.725;0;Wrist;1;58079;9,86;-0,6137150062372204;0,8099124237990967;-1,6425550572985015;0,8099124237990967;-0,6137150062372204;-1,6425550572985015;-6,378368480483413;-29,23673207800531;3,173924985503708
11:55:02.741;0;Mov;1;11736;9,95;-0,874514028500473;0;-1,7107455671864986;0,16150395214697713;-0,874514028500473;-1,7107455671864986;-12,787255470442824;-44,92324594866787;-3,295999023407697
11:55:02.741;0;Mov;1;11737;9,95;-0,6185003323656423;0;-1,8327708470030823;0,3612903345019379;-0,6185003323656423;-1,8327708470030823;-10,101626636555071;-37,11050752281258;-3,936887722403638
11:55:02.741;0;Mov;1;11738;9,95;0;0;-1,8076479146320994;0,3780388865417188;-0,4534073856223487;-1,8076479146320994;-7,141331217383343;-29,78606524857326;-3,845332193975646
11:55:02.741;0;Mov;1;11739;9,95;-0,6699423200170904;0;-0,708224750225074;0,12322153684060945;-0,6699423200170904;-0,708224750225074;-3,936887722403638;-25,269325846125675;-3,204443494979705
11:55:02.742;0;Mov;1;11740;9,95;-0,7943602032914212;-1,0348216193121127;1,2226448055589465;-1,0348216193121127;-0,7943602032914212;1,2226448055589465;-4,211554307687613;-22,94991912594989;-3,0823694570757163
11:55:02.748;0;Wrist;1;58080;9,95;-0,8565691449285867;0;-0,5873958913502915;0,40794702582819603;-0,8565691449285867;-0,5873958913502915;-12,26844080935087;-24,903103732413708;2,71614734336375
11:55:02.748;0;Wrist;1;58081;9,95;-1,3350993139057588;0;-0,5850032282860805;0,4306772057252724;-1,3350993139057588;-0,5850032282860805;-13,855403302102726;-19,257179479354228;3,4180730613116856
11:55:02.748;0;Wrist;1;58082;9,95;-1,0360179210409863;0;0;0,4653706711401715;-1,0360179210409863;0,4199102815427869;-13,275551622058778;-13,91644032105472;2,2278511917477952
11:55:02.748;0;Wrist;1;58083;9,95;-0,8290536090998566;0;0,717795342875454;-0,01674855762788686;-0,8290536090998566;0,717795342875454;-9,704886013367107;-9,826960051271096;1,5564439832758568
11:55:02.749;0;Wrist;1;58084;9,95;-1,1652211304437392;0;0,9618457832956938;-0,0705832102062479;-1,1652211304437392;0,9618457832956938;-5,554368724631489;-8,728293710135198;2,0142216254158147
11:55:02.801;0;Mov;1;11741;9,96;0;-1,2322153386028627;0;-1,2322153386028627;0,0023926511894857296;0,4258919094000824;-6,164738914151433;-25,11673329874569;-4,089480269783624
11:55:02.801;0;Mov;1;11742;9,96;0;0;0;-0,4845118564409314;0,2679769220461898;0,04187139500106815;-8,14844203009125;-27,28354747154149;-4,547257911923582
11:55:02.801;0;Mov;1;11743;9,96;0;0;0;-0,3469344157231361;0,038282419031771674;-0,10886562551261558;-9,704886013367107;-27,37510299996948;-3,814813684499649
11:55:02.801;0;Mov;1;11744;9,96;0;0;0;-0,3888058107242042;-0,07656483806354335;-0,31224098011146884;-10,864589373455;-26,764732810449537;-2,6551103244117558
11:55:02.801;0;Mov;1;11745;9,96;0;0;-0,5622730185857723;-0,17227089123107853;0,18782311173875393;-0,5622730185857723;-11,902218695638904;-24,9946592608417;-2,3499252296517836
11:55:02.822;0;Wrist;1;58085;10,01;-1,6461439624851222;0;1,085067364841151;-0,1387737722499008;-1,6461439624851222;1,085067364841151;-2,838221381267739;-9,704886013367107;1,4343699453718681
11:55:02.822;0;Wrist;1;58086;10,01;-1,7932920554597613;0;0,8900662490081485;-0,0957060457167272;-1,7932920554597613;0,8900662490081485;-0,9155552842799157;-11,780144657734915;-0,24414807580797754
11:55:02.822;0;Wrist;1;58087;10,01;-1,508566521767327;0;0,9223670513588367;-0,03708609495047418;-1,508566521767327;0,9223670513588367;1,5259254737998595;-13,48918118839076;-1,922666096987823
11:55:02.822;0;Wrist;1;58088;10,01;-1,2489639204458753;0;0,8422132261497849;-0,17227089123107853;-1,2489639204458753;0,8422132261497849;4,394665364543596;-15,686513870662557;-2,9602954191717274
11:55:02.822;0;Wrist;1;58089;10,01;-1,548045313310648;0;0;-0,14595171673768578;-1,548045313310648;0,3265968988902707;6,317331461531419;-18,03643910031434;-3,1128879665517135
11:55:02.837;0;Wrist;1;58090;9,82;-1,6616962425992614;0;0;0,04904935066506508;-1,6616962425992614;0,26558428878521073;8,02636799218726;-19,379253517258217;-4,058961760307627
11:55:02.838;0;Wrist;1;58091;9,82;-1,3327067104480117;0;0,6914761683820613;-0,05383465071565905;-1,3327067104480117;0,6914761683820613;9,002960295419172;-19,77599414044618;-5,249183629871517
11:55:02.838;0;Wrist;1;58092;9,82;-1,074300410855434;0;0;-0,0933133975541322;-1,074300410855434;0,39119847378841516;8,667256691183203;-21,51554918057802;-5,401776177251503
11:55:02.838;0;Wrist;1;58093;9,82;-0,7823969475768303;0;0;0,17107455969897306;-0,7823969475768303;0,4534073856223487;7,965330973235267;-22,461622974333935;-5,066072573015534
11:55:02.838;0;Wrist;1;58094;9,82;-0,5694510077784051;0;0;0,12681051653530992;-0,5694510077784051;0,16030763551648763;7,293923764763329;-22,40058595538194;-4,577776421399578
11:55:02.891;0;Mov;1;11746;10,07;0;0;-1,4152531987212744;0,2560136663315989;0,24165777735602892;-1,4152531987212744;-11,474959562974945;-21,72917874691;-1,3122959074678793
11:55:02.891;0;Mov;1;11747;10,07;0;0;-1,777739775345622;0,4390514966467788;-0,2751548814355907;-1,777739775345622;-9,826960051271096;-16,541032135990477;0,3967406231879635
11:55:02.891;0;Mov;1;11748;10,07;-1,0085025044251839;0;-0,8015381328775902;-0,10168767357402264;-1,0085025044251839;-0,8015381328775902;-8,301034577471237;-10,620441297647023;1,0681478316599018
11:55:02.891;0;Mov;1;11749;10,07;-1,1460799451429793;-1,0252510862681967;0,8661397375789667;-1,0252510862681967;-1,1460799451429793;0,8661397375789667;-7,141331217383343;-8,209479049043244;-0,061037018951994385
11:55:02.892;0;Mov;1;11750;10,07;-0,5562913907284768;-1,2441785943174535;1,2405896891308328;-1,2441785943174535;-0,5562913907284768;1,2405896891308328;-5,890072328867458;-11,41392254402295;-1,9837031159398175
11:55:02.893;0;Mov;1;11751;9,97;0;-0,7034394240966522;0,5383465071565905;-0,7034394240966522;-0,34932707878734703;0,5383465071565905;-5,462813196203498;-15,289773247474594;-2,533036286507767
11:55:02.893;0;Mov;1;11752;9,97;-0,7704336918622394;0;0;-0,3672719623592334;-0,7704336918622394;-0,16987822816686757;-4,974517044587542;-16,144291512802514;-1,9837031159398175
11:55:02.893;0;Mov;1;11753;9,97;-1,0635334568697166;0;0;-0,3134373116435743;-1,0635334568697166;-0,22371287888252664;-3,6011841181676685;-14,954069643238624;-1,9531846064638203
11:55:02.893;0;Mov;1;11754;9,97;-0,6902798666531876;0;0;-0,2715659166425062;-0,6902798666531876;-0,40675069429609056;-1,922666096987823;-13,702810754722739;-2,7466658528397474
11:55:02.893;0;Mov;1;11755;9,97;0;0;0;-0,27276224817461164;-0,2488357218438139;-0,40435806103511157;-0,24414807580797754;-12,26844080935087;-2,3499252296517836
11:55:02.898;0;Wrist;1;58095;9,96;-0,5036531013481551;0;0;0,06101260637965598;-0,5036531013481551;-0,08972441785943175;7,599108859523301;-22,095400860621968;-3,326517532883694
11:55:02.898;0;Wrist;1;58096;9,96;0;0;0;0,2273018585772271;-0,3612903345019379;-0,1507370279644917;7,9958494827112645;-20,477919858394117;-1,6174810022278512
11:55:02.898;0;Wrist;1;58097;9,96;0;0;0;0,32061527103297527;-0,20816065837485123;-0,2823328408249916;7,446516312143315;-17,975402081362347;-0,3051850947599719
11:55:02.898;0;Wrist;1;58098;9,96;0;0;0;0,10408032918742562;-0,16270028367908262;0,236872466129223;5,4322946867275;-15,594958342234566;0,6714072084719382
11:55:02.898;0;Wrist;1;58099;9,96;-0,5670583447141941;0;0;-0,117239908983314;-0,5670583447141941;0,40794702582819603;3,845332193975646;-14,709921567430646;2,6551103244117558
11:55:02.950;0;Mov;1;11756;9,96;0;0;-0,595770122665334;-0,2524247015385144;-0,08493911408343378;-0,595770122665334;1,098666341135899;-10,773033845027008;-1,098666341135899
11:55:02.950;0;Mov;1;11757;9,96;0;0;-0,7429182156399732;-0,0945097216354297;0,04546037097036462;-0,7429182156399732;0,5798516800439466;-8,48414563432722;-0,15259254737998595
11:55:02.950;0;Mov;1;11758;9,96;0;0;-0,5491134611423079;-0,15791497245227668;0,17466353939367352;-0,5491134611423079;0,030518509475997192;-5,981627857295449;0,4272591326639607
11:55:02.951;0;Mov;1;11759;9,96;0;0;0;-0,30745568378627885;-0,05144199882766007;-0,13039949623001038;0,5188146610919523;-4,821924497207556;1,7090365306558428
11:55:02.952;0;Mov;1;11760;9,96;0;-0,5048494030770287;0;-0,5048494030770287;-0,49886777521973324;0,06579790643024995;1,281777397991882;-4,119998779259621;2,4414807580797753
11:55:02.962;0;Wrist;1;58100;9,86;-0,9462935627880185;0;0;0,1339884610230949;-0,9462935627880185;0,2895108002143925;2,166814172795801;-15,930661946470535;3,295999023407697
11:55:02.963;0;Wrist;1;58101;9,86;-0,9594531202314829;0;0;0,1387737722499008;-0,9594531202314829;0,009570604757942918;-0,24414807580797754;-16,693624683370466;2,410962248603778
11:55:02.963;0;Wrist;1;58102;9,86;-0,9594531202314829;0;-0,5586840537926878;0,2129459547000412;-0,9594531202314829;-0,5586840537926878;-2,166814172795801;-16,20532853175451;1,7090365306558428
11:55:02.963;0;Wrist;1;58103;9,86;-0,8697287023720511;0;0;0,22132023071993165;-0,8697287023720511;-0,478530228583636;-2,410962248603778;-14,160588396862698;1,1597033600878932
11:55:02.963;0;Wrist;1;58104;9,86;-0,9439008997238075;0;-0,5838068669507431;0,37684255500961333;-0,9439008997238075;-0,5838068669507431;-2,563554795983764;-11,597033600878934;1,1597033600878932
11:55:02.989;0;Wrist;1;58105;9,39;-0,8792992950224311;0,6842982387958922;-0,9127963991019928;0,6842982387958922;-0,8792992950224311;-0,9127963991019928;-3,5401470992156745;-8,14844203009125;0,5188146610919523
11:55:02.989;0;Wrist;1;58106;9,39;-0,6196966340945158;0;-0,8218756795136876;0,290707131746498;-0,6196966340945158;-0,8218756795136876;-3,845332193975646;-3,69273964659566;-0,12207403790398877
11:55:02.990;0;Wrist;1;58107;9,39;-0,8326426334994049;0;0;0,04306772280776963;-0,8326426334994049;-0,297885061332667;-2,7466658528397474;-0,6714072084719382;1,0071108127079074
11:55:02.990;0;Wrist;1;58108;9,39;-1,454731871051668;0;0;0,27276224817461164;-1,454731871051668;-0,16270028367908262;-1,8005920590838342;0,9765923032319102;2,166814172795801
11:55:02.990;0;Wrist;1;58109;9,39;-1,5265114053392133;0;0;0,38760947919209876;-1,5265114053392133;-0,48929718256935334;-0,9155552842799157;3,7232581560716573;0,8239997558519242
11:55:03.012;0;Mov;1;11761;9,5;-0,7118137150181585;0;0;-0,45580004868655966;-0,7118137150181585;-0,25362103307061984;2,838221381267739;-4,272591326639607;1,586962492751854
11:55:03.012;0;Mov;1;11762;9,5;-0,8374279000213629;0;-1,257338151760918;0,10288399765532014;-0,8374279000213629;-1,257338151760918;5,554368724631489;-3,1434064760277107;0,3357036042359691
11:55:03.012;0;Mov;1;11763;9,5;-1,3685964775917845;0;-1,3709890810495315;0,052638326634361556;-1,3685964775917845;-1,3709890810495315;7,446516312143315;0,7324442274239327;-0,15259254737998595
11:55:03.012;0;Mov;1;11764;9,5;-1,4762657790231024;0;-0,6089297397152623;-0,49408247889454326;-1,4762657790231024;-0,6089297397152623;9,155552842799157;5,127109591967528;-1,403851435895871
11:55:03.012;0;Mov;1;11765;9,5;-0,6232856584940641;-1,0910489926984466;0;-1,0910489926984466;-0,6232856584940641;0,3708609271523179;10,22370067445906;6,469924008911405;-3,295999023407697
11:55:03.040;0;Mov;1;11766;9,58;0;-1,0683187829981384;0,8876735859439375;-1,0683187829981384;0,2775475444998016;0,8876735859439375;10,376293221839045;4,150517288735618;-4,211554307687613
11:55:03.040;0;Mov;1;11767;9,58;0;-0,5108310309343241;0;-0,5108310309343241;0,3780388865417188;0,236872466129223;10,773033845027008;1,1291848506118962;-2,8687398907437363
11:55:03.040;0;Mov;1;11768;9,58;0;0;0;0,09092074194072924;-0,22610554194673757;-0,415124985217597;11,352885525070956;1,4648884548478653;-0,8239997558519242
11:55:03.040;0;Mov;1;11769;9,58;-0,537150205427717;0;0;-0,21414228623214668;-0,537150205427717;-0,39119847378841516;11,444441053498947;4,089480269783624;0,3357036042359691
11:55:03.040;0;Mov;1;11770;9,58;0;-0,8972441785943175;0;-0,8972441785943175;-0,010766930701942408;0,46297800807596057;10,589922788171025;5,76799829096347;0,09155552842799158
11:55:03.048;0;Wrist;1;58110;9,61;-0,900833143387402;0;0;0,2871181371501816;-0,900833143387402;-0,1531296761270867;0,640888698995941;7,232886745811334;-1,1291848506118962
11:55:03.048;0;Wrist;1;58111;9,61;-0,783593249305704;0;0;-0,027515489261180266;-0,783593249305704;0,16150395214697713;2,044740134891812;9,33866389965514;-1,403851435895871
11:55:03.048;0;Wrist;1;58112;9,61;-1,0695150847270118;0;0;0,04426404688906713;-1,0695150847270118;0,17825251908837397;3,3875545518356884;9,430219428083133;-1,281777397991882
11:55:03.048;0;Wrist;1;58113;9,61;-0,8757103302293466;0;0;0,2596026609279153;-0,8757103302293466;-0,10288399765532014;3,9979247413556322;8,941923276467177;-1,7090365306558428
11:55:03.048;0;Wrist;1;58114;9,61;-0,5060457048059023;0,7991454698133793;-1,5348857558671833;0,7991454698133793;-0,5060457048059023;-1,5348857558671833;3,051850947599719;10,132145146031068;-1,1597033600878932
11:55:03.103;0;Mov;1;11771;9,83;0,7943602032914212;-0,9319376440092166;0,8194830164494766;-0,9319376440092166;0,7943602032914212;0,8194830164494766;9,460737937559129;3,814813684499649;-0,3967406231879635
11:55:03.103;0;Mov;1;11772;9,83;1,2872462910473952;0;-0,7225806690038759;-0,03230079117447623;1,2872462910473952;-0,7225806690038759;9,369182409131138;1,4343699453718681;1,3428144169438765
11:55:03.103;0;Mov;1;11773;9,83;0;1,6054689884258553;-2,832899000900296;1,6054689884258553;0,19739371929074984;-2,832899000900296;10,315256202887051;4,272591326639607;5,523850215155492
11:55:03.103;0;Mov;1;11774;9,83;-2,337620309686575;2,3017305425428023;-4,842726199377422;2,3017305425428023;-2,337620309686575;-4,842726199377422;11,780144657734915;14,55732902005066;10,040589617603077
11:55:03.103;0;Mov;1;11775;9,83;-3,0290962992492445;0;-4,2397777298806725;0,01794488357188635;-3,0290962992492445;-4,2397777298806725;9,979552598651082;28,962065492721337;9,063997314371166
11:55:03.109;0;Wrist;1;58115;9,84;0;0,900833143387402;-2,0935697500534074;0,900833143387402;0,0933133975541322;-2,0935697500534074;3,2654805139316996;17,456587420270395;-0,36622211371196634
11:55:03.109;0;Wrist;1;58116;9,84;0;0;-0,7608630992118595;0,0837427900021363;-0,04187139500106815;-0,7608630992118595;6,19525742362743;25,910214545121615;1,922666096987823
11:55:03.109;0;Wrist;1;58117;9,84;-1,6963897080141606;0;0;-0,11125828112601856;-1,6963897080141606;-0,3935911070493942;7,232886745811334;29,3588061159093;5,493331705679495
11:55:03.109;0;Wrist;1;58118;9,84;-2,982439697332682;0;0;0,24524674214911343;-2,982439697332682;-0,20337534714804528;9,308145390179144;30,060731833857233;4,516739402447585
11:55:03.109;0;Wrist;1;58119;9,84;-2,061269007309183;0;1,4104678725928526;-0,10886562551261558;-2,061269007309183;1,4104678725928526;13,641773735770744;32,74636066774499;-1,7700735496078372
11:55:03.138;0;Wrist;1;58120;9,83;-0,9606494815668203;0;1,1640248287148656;-0,08254646592083881;-0,9606494815668203;1,1640248287148656;15,686513870662557;30,88473158970916;-3,9979247413556322
11:55:03.138;0;Wrist;1;58121;9,83;0;0;1,1030122484130376;-0,3289895321512497;-0,20816065837485123;1,1030122484130376;20,32532731101413;29,633472701193273;-4,333628345591602
11:55:03.138;0;Wrist;1;58122;9,83;-0,8410168648144475;0;0;0,2596026609279153;-0,8410168648144475;0,4019653979709006;23,224585711233864;26,612140263069552;-0,5493331705679495
11:55:03.138;0;Wrist;1;58123;9,83;-1,5097629427091281;0,9080111325800347;-1,873445940275277;0,9080111325800347;-1,5097629427091281;-1,873445940275277;24,597918637653738;26,673177282021545;0,6714072084719382
11:55:03.138;0;Wrist;1;58124;9,83;-1,6545183130130925;1,0719076881847591;-2,642683330408643;1,0719076881847591;-1,6545183130130925;-2,642683330408643;25,727103488265634;33,20413830988495;-2,71614734336375
11:55:03.198;0;Wrist;1;58125;9,96;-1,2453748960463271;0;-1,3123692234183781;0,39119847378841516;-1,2453748960463271;-1,3123692234183781;26,276436658833582;41,71880245368816;-7,9958494827112645
11:55:03.198;0;Wrist;1;58126;9,96;-1,3147618268761254;0;-0,8266610056421094;-0,4534073856223487;-1,3147618268761254;-0,8266610056421094;25,97125156407361;45,503097628711814;-9,216589861751151
11:55:03.198;0;Wrist;1;58127;9,96;-1,5408673837244788;0,9666311094241157;-3,5794060621204262;0,9666311094241157;-1,5408673837244788;-3,5794060621204262;20,203253273110143;46,05243079927976;-7,782219916379284
11:55:03.198;0;Wrist;1;58128;9,96;-1,4176458021790215;1,2812646631901;-3,854561181981872;1,2812646631901;-1,4176458021790215;-3,854561181981872;19,5623645741142;55,360576189458904;-10,711996826075014
11:55:03.198;0;Wrist;1;58129;9,96;-1,2872462910473952;1,5612048707541124;-3,1858150444807274;1,5612048707541124;-1,2872462910473952;-3,1858150444807274;18,58577227088229;66,04205450605792;-12,298959318826869
11:55:03.221;0;Mov;1;11776;10,17;-0,7130100763534959;-1,7897030310602131;0,9020295047227394;-1,7897030310602131;-0,7130100763534959;0,9020295047227394;8,728293710135198;37,079989013336586;3,204443494979705
11:55:03.221;0;Mov;1;11777;10,17;2,832899000900296;-1,8686606141468551;3,7205725272377697;-1,8686606141468551;2,832899000900296;3,7205725272377697;4,24207281716361;33,81450849940489;1,73955504013184
11:55:03.221;0;Mov;1;11778;10,17;4,32471694082461;0;1,5803460560548723;-0,4809228916478469;4,32471694082461;1,5803460560548723;-0,9155552842799157;24,201178014465775;6,561479537339396
11:55:03.221;0;Mov;1;11779;10,17;2,714462864696188;0;-0,6974577962393567;0,468959635933256;2,714462864696188;-0,6974577962393567;-5,279702139347514;18,616290780358288;14,801477095858639
11:55:03.222;0;Mov;1;11780;10,17;0;0;-0,701046820638905;-0,4306772057252724;0,39837643317781607;-0,701046820638905;-12,39051484725486;19,34873500778222;20,44740134891812
11:55:03.222;0;Mov;1;11781;10,09;-1,376970708906827;-0,7919675402272103;-0,7453108190977202;-0,7919675402272103;-1,376970708906827;-0,7453108190977202;-16,17481002227851;21,607104709006013;20,264290292062135
11:55:03.222;0;Mov;1;11782;10,09;-2,5732963995788447;0;-2,6606282139805293;0,4258919094000824;-2,5732963995788447;-2,6606282139805293;-9,613330484939116;22,73628955961791;18,341624195074314
11:55:03.222;0;Mov;1;11783;10,09;-3,3054476016266365;0,9785943651387067;-3,9107884361552783;0,9785943651387067;-3,3054476016266365;-3,9107884361552783;-0,640888698995941;33,02102725302896;16,08325449385052
11:55:03.223;0;Mov;1;11784;10,09;-3,110446485793634;0,7800042845126194;-3,919162667470321;0,7800042845126194;-3,110446485793634;-3,919162667470321;10,284737693411055;49,47050386059145;13,336588641010772
11:55:03.223;0;Mov;1;11785;10,09;-2,3471907235175635;0,8039307959418012;-3,9442855998413036;0,8039307959418012;-2,3471907235175635;-3,9442855998413036;22,27851191747795;63,50901821955016;10,773033845027008
11:55:03.250;0;Mov;1;11786;9,95;-2,9178382118442334;0;0,9618457832956938;-0,15791497245227668;-2,9178382118442334;0,9618457832956938;44,5570238349559;81,42338328196051;7,263405255287331
11:55:03.250;0;Mov;1;11787;9,95;0;-2,3065157494582964;3,706216668065432;-2,3065157494582964;-0,0466566987770661;3,706216668065432;71,01657155064547;100,07019257179479;0,15259254737998595
11:55:03.250;0;Mov;1;11788;9,95;3,415509506515702;0;2,0373424958800013;-0,2751548814355907;3,415509506515702;2,0373424958800013;73,85479293191321;93,96649067659536;-4,486220892971588
11:55:03.250;0;Mov;1;11789;9,95;3,2659688100833155;0;2,0804103118228707;0,17227089123107853;3,2659688100833155;2,0804103118228707;55,726798303170874;95,18723105563524;-4,852443006683553
11:55:03.250;0;Mov;1;11790;9,95;0;0;1,2800683614612263;0,33018586368335523;-0,17107455969897306;1,2800683614612263;52,24768822290719;76,75405133213295;0,3357036042359691
11:55:03.260;0;Wrist;1;58130;9,97;-0,5826105652218696;0,5479170998069705;1,3793634315775019;0,5479170998069705;-0,5826105652218696;1,3793634315775019;-3,1434064760277107;78,12738425855281;-5,798516800439467
11:55:03.260;0;Wrist;1;58131;9,97;-0,9415082366595966;0,8158940516563921;-1,0025208765678884;0,8158940516563921;-0,9415082366595966;-1,0025208765678884;-24,750511185033723;81,17923520615253;0,9460737937559129
11:55:03.260;0;Wrist;1;58132;9,97;-1,27049782841731;2,741978162099063;-0,884084621150853;2,741978162099063;-1,27049782841731;-0,884084621150853;-38,39228492080447;97,38456373790704;2,8687398907437363
11:55:03.260;0;Wrist;1;58133;9,97;-2,5625293263802;0,5850032282860805;5,138218329416791;0,5850032282860805;-2,5625293263802;5,138218329416791;-42,847987304300055;136,66188543351544;-5,401776177251503
11:55:03.260;0;Wrist;1;58134;9,97;-2,1509934251686147;0;3,252809371852779;0,3170262764366588;-2,1509934251686147;3,252809371852779;-31,067842646565143;158,4521011993774;-14,954069643238624
11:55:03.289;0;Wrist;1;58135;9,84;0;0;1,9918820764793848;-0,3517197120483261;0,07297585836884289;1,9918820764793848;-22,034363841669972;164,1895809808649;-17,242957853938414
11:55:03.289;0;Wrist;1;58136;9,84;0;-0,5012604382839442;0,8637470745147557;-0,5012604382839442;0,49886777521973324;0,8637470745147557;-16,479995117038484;160,9546189764092;-17,853328043458358
11:55:03.289;0;Wrist;1;58137;9,84;1,9607776354640338;-1,0049134800256356;0,5646656816499832;-1,0049134800256356;1,9607776354640338;0,5646656816499832;-30,793176061281166;148,01477095858638;-20,75258644367809
11:55:03.289;0;Wrist;1;58138;9,84;-1,4224311283074436;-3,073360536133915;1,8004699850459303;-3,073360536133915;-1,4224311283074436;1,8004699850459303;-36,9579149754326;125,30899990844448;-33,26517532883694
11:55:03.290;0;Wrist;1;58139;9,84;-2,5577441194647053;-1,5444562889110995;1,2657125022888882;-1,5444562889110995;-2,5577441194647053;1,2657125022888882;-42,909024323252055;91,3724173711356;-34,424878688924835
11:55:03.311;0;Mov;1;11791;9,96;-0,9331339457380902;-1,0168767357402264;0,9690237128818628;-1,0168767357402264;-0,9331339457380902;0,9690237128818628;50,90487380596332;69,82634968108158;5,005035554063539
11:55:03.311;0;Mov;1;11792;9,96;-0,5108310309343241;0;-0,6101260414441358;0,21892758255733666;-0,5108310309343241;-0,6101260414441358;52,003540147099216;33,87554551835689;9,979552598651082
11:55:03.311;0;Mov;1;11793;9,96;0;0;0;-0,36009400296983246;-0,29549242807168796;0,10527665326872311;46,7543565172277;63,35642567217017;9,552293465987121
11:55:03.311;0;Mov;1;11794;9,96;-1,0025208765678884;0;0,9367229701376385;-0,410339688892407;-1,0025208765678884;0,9367229701376385;40,07080294198431;83,28501235999634;10,895107882930997
11:55:03.312;0;Mov;1;11795;9,96;-0,5993591470648824;-0,8158940516563921;0,6854945405247658;-0,8158940516563921;-0,5993591470648824;0,6854945405247658;33,87554551835689;59,63316751609852;12,72621845149083
11:55:03.340;0;Mov;1;11796;9,96;-1,9571887302774134;-1,8255927982039857;0,9917539225821711;-1,8255927982039857;-1,9571887302774134;0,9917539225821711;35,00473036896878;77,97479171117283;25,696584978789637
11:55:03.340;0;Mov;1;11797;9,96;-1,0527665028839992;0;0;-0,16987822816686757;-1,0527665028839992;-0,06699423051154745;31,678212836085084;62,19672231208228;31,95287942136906
11:55:03.340;0;Mov;1;11798;9,96;-1,9177099387340921;-0,5263832514419996;-1,0599444324701681;-0,5263832514419996;-1,9177099387340921;-1,0599444324701681;38,27021088290048;74,89242225409711;38,94161809137242
11:55:03.340;0;Mov;1;11799;9,96;-1,5624011724829858;-1,1424909207434308;0,527579612777337;-1,1424909207434308;-1,5624011724829858;0,527579612777337;42,02398754844813;111,69774468214972;42,72591326639607
11:55:03.340;0;Mov;1;11800;9,96;0;-1,123349735442671;0,9104037956442458;-1,123349735442671;-0,4246955778679769;0,9104037956442458;39,1857661671804;108,00500503555406;43,70250556962798
11:55:03.348;0;Wrist;1;58140;9,96;0;-1,0419995488982818;1,6760521017715995;-1,0419995488982818;0,12441786092190694;1,6760521017715995;-54,62813196203498;83,13241981261635;-34,48591570787683
11:55:03.348;0;Wrist;1;58141;9,96;0;-1,0802820387127292;0,881691958086642;-1,0802820387127292;-0,2512283700064089;0,881691958086642;-33,753471480452895;76,021607104709;-31,128879665517136
11:55:03.349;0;Wrist;1;58142;9,96;-0,701046820638905;0,8362315982924894;0;0,8362315982924894;-0,701046820638905;-0,10408032918742562;-25,055696279793693;65,06546220282601;-30,4269539475692
11:55:03.349;0;Wrist;1;58143;9,96;0;0;0;0,3732535902165288;-0,14954069643238624;0,29668875960379343;-29,938657795953247;71,87108981597339;-29,755546739097262
11:55:03.349;0;Wrist;1;58144;9,96;0;0;0,8111087255279702;-0,4378551651146733;0,39598377011360514;0,8111087255279702;-37,35465559862056;66,95760979033784;-31,922360911893062
11:55:03.400;0;Mov;1;11801;9,96;-0,9127963991019928;-1,0515702011551256;0,9953428873752556;-1,0515702011551256;-0,9127963991019928;0,9953428873752556;36,19495223853267;86,55049287392804;49,9893185216834
11:55:03.400;0;Mov;1;11802;9,96;0;0;0;-0,19978636745334483;0,415124985217597;0,20935697500534073;28,443250831629385;70,5893124179815;47,151097140415665
11:55:03.400;0;Mov;1;11803;9,96;0;-0,7596667378765221;0,9367229701376385;-0,7596667378765221;0,3433454509300516;0,9367229701376385;20,56947538682211;77,1507919553209;37,87347025971251
11:55:03.400;0;Mov;1;11804;9,96;0;-0,7871822140987884;0,5634693799211097;-0,7871822140987884;0,0705832102062479;0,5634693799211097;14,923551133762627;71,53538621173742;32,07495345927305
11:55:03.401;0;Mov;1;11805;9,96;-0,5395428684919279;0;0;-0,021533861403884816;-0,5395428684919279;0,3134373116435743;16,2968840601825;75,74694051942502;26,459547715689567
11:55:03.417;0;Wrist;1;58145;9,99;-1,301602269432661;-1,4296090578936125;1,4008972203360088;-1,4296090578936125;-1,301602269432661;1,4008972203360088;-29,02310251167333;54,26190984832301;-29,145176549577318
11:55:03.417;0;Wrist;1;58146;9,99;-1,5181371740241707;0;0,579021600428785;0,014355907602589877;-1,5181371740241707;0,579021600428785;-32,19702749717704;45,31998657185583;-25,513473921933652
11:55:03.417;0;Wrist;1;58147;9,99;0;0;0,9283486792161321;0,39598377011360514;-0,4964751121555223;0,9283486792161321;-42,3596911526841;36,927396465956605;-23,316141239661857
11:55:03.417;0;Wrist;1;58148;9,99;0;-1,4690878494369335;1,3063875955610829;-1,4690878494369335;-0,3888058107242042;1,3063875955610829;-32,92947172460097;34,638508255256816;-21,05777153843806
11:55:03.417;0;Wrist;1;58149;9,99;0;0;0;0,04306772280776963;-0,417517618478576;0,31224098011146884;-21,454512161626027;29,99969481490524;-17,91436506241035
11:55:03.438;0;Wrist;1;58150;9,83;-0,5168126587916196;-0,6376415176664022;0,7417218543046358;-0,6376415176664022;-0,5168126587916196;0,7417218543046358;-17,15140232551042;23,285622730185857;-19,867549668874172
11:55:03.438;0;Wrist;1;58151;9,83;-0,9259560161519211;0;0,7907712384983367;-0,29190343347537157;-0,9259560161519211;0,7907712384983367;-15,411847285378583;22,186956389049957;-20,87466048158208
11:55:03.438;0;Wrist;1;58152;9,83;-1,0132878305536057;0;0;0,4139286536854915;-1,0132878305536057;0,1411664204124958;-15,625476851710562;26,429029206213567;-19,501327555162206
11:55:03.438;0;Wrist;1;58153;9,83;-0,9797906668675802;-0,6795129126674703;0,5921811578722496;-0,6795129126674703;-0,9797906668675802;0,5921811578722496;-20,29480880153813;24,170659504989775;-19,379253517258217
11:55:03.438;0;Wrist;1;58154;9,83;-1,5396710819956054;0;0;0,10049134949272515;-1,5396710819956054;0,39119847378841516;-20,722067934202094;24,9946592608417;-16,08325449385052
11:55:03.465;0;Mov;1;11806;9,96;-0,7381328895115512;0;0;0,20696432684274574;-0,7381328895115512;0,3696645956202124;17,853328043458358;78,61568041016876;22,186956389049957
11:55:03.465;0;Mov;1;11807;9,96;0;-1,0132878305536057;0;-1,0132878305536057;-0,3098483170472579;-0,410339688892407;15,808587908566546;74,03790398876919;16,724143192846462
11:55:03.465;0;Mov;1;11808;9,96;0;-1,9296731944486831;0;-1,9296731944486831;-0,23806879766132846;-0,468959635933256;16,907254249702444;70,03997924741356;18,15851313821833
11:55:03.465;0;Mov;1;11809;9,96;0;-1,0144841322824794;0;-1,0144841322824794;-0,08493911408343378;-0,478530228583636;15,2287362285226;54,597613452558974;22,27851191747795
11:55:03.465;0;Mov;1;11810;9,96;0;0;0;-0,3864131774632252;0,21174962316793572;-0,2464430736812189;16,541032135990477;47,66991180150762;22,095400860621968
11:55:03.490;0;Mov;1;11811;9,96;0;-0,9582568185026094;0;-0,9582568185026094;0,46058534501174964;-0,34095278786584066;17,334513382366406;44,80117191076388;20,844141972106083
11:55:03.490;0;Mov;1;11812;9,96;0,9510788293099764;-0,9032258064516129;0;-0,9032258064516129;0,9510788293099764;-0,3696645956202124;13,91644032105472;38,758507034516434;16,235847041230507
11:55:03.491;0;Mov;1;11813;9,96;0,6699423200170904;0;0;-0,1435590685750908;0,6699423200170904;0,0346934430624752;10,22370067445906;34,821619312112794;10,071108127079073
11:55:03.491;0;Mov;1;11814;9,96;0;0;0;-0,07297585836884289;0,417517618478576;-0,0705832102062479;9,094515823847164;32,47169408246101;4,821924497207556
11:55:03.491;0;Mov;1;11815;9,96;0;0;0;-0,4426404614398633;0,23089083827192755;0,04426404688906713;7,477034821619312;33,20413830988495;1,9531846064638203
11:55:03.509;0;Wrist;1;58155;9,96;-0,8242683425778985;0;0;0,415124985217597;-0,8242683425778985;-0,2715659166425062;-19,043549913022247;26,917325357829522;-10,040589617603077
11:55:03.509;0;Wrist;1;58156;9,96;-1,0611408534119693;-1,0491775976973785;0;-1,0491775976973785;-1,0611408534119693;0,45938904328287605;-19,318216498306224;20,142216254158146;-9,155552842799157
11:55:03.509;0;Wrist;1;58157;9,96;-1,4391797101504562;0;0;0,1770561875562685;-1,4391797101504562;-0,07656483806354335;-19,531846064638202;21,423993652150028;-7,019257179479355
11:55:03.509;0;Wrist;1;58158;9,96;-1,9201025421918394;-0,6376415176664022;0;-0,6376415176664022;-1,9201025421918394;0,12322153684060945;-20,081179235206154;20,813623462630087;-2,075258644367809
11:55:03.509;0;Wrist;1;58159;9,96;-1,813629542489395;0;0;0,003588976900647469;-1,813629542489395;0,004785302378971459;-20,966216010010072;11,871700186162908;1,73955504013184
11:55:03.550;0;Mov;1;11816;9,96;0;0;0;-0,010766930701942408;-0,06819056204365291;0,11604358490201651;7,293923764763329;33,38724936674093;0,3357036042359691
11:55:03.550;0;Mov;1;11817;9,96;0;0;0;-0,2739585499034852;-0,15193334459498123;0,010766930701942408;5,035554063539537;32,19702749717704;-1,1902218695638904
11:55:03.550;0;Mov;1;11818;9,96;0;0;0;-0,18064516725096896;-0,47494126379055146;0,17825251908837397;3,1128879665517135;32,654805139317;-0,793481246375927
11:55:03.550;0;Mov;1;11819;9,96;-0,6926725297173986;0;0;0,1435590685750908;-0,6926725297173986;0,21174962316793572;8,178960539567248;32,92947172460097;0,36622211371196634
11:55:03.550;0;Mov;1;11820;9,96;-0,6173040306367688;0;0;0,19500107112815485;-0,6173040306367688;0,2631916257209998;10,834070863979003;32,990508743552965;0,9765923032319102
11:55:03.558;0;Wrist;1;58160;9,96;-0,8493911557359538;0,8505875170712912;0;0,8505875170712912;-0,8493911557359538;0,020337535459885328;-23,316141239661857;10,98666341135899;3,448591570787683
11:55:03.558;0;Wrist;1;58161;9,96;-0,9116000973731193;0;0;0,25720999786370435;-0,9116000973731193;0,1985900508228553;-23,499252296517838;12,93984801782281;0,9765923032319102
11:55:03.558;0;Wrist;1;58162;9,96;-1,1412946190145574;0;0,6807092740028077;0,117239908983314;-1,1412946190145574;0,6807092740028077;-23,316141239661857;12,72621845149083;0,6103701895199438
11:55:03.559;0;Wrist;1;58163;9,96;-0,9738090390102847;0,8733176671651357;0;0,8733176671651357;-0,9738090390102847;0,0011963255947428648;-21,423993652150028;18,463698232978302;2,8687398907437363
11:55:03.559;0;Wrist;1;58164;9,96;-1,1484725486007263;0,5132236939985351;0;0,5132236939985351;-1,1484725486007263;0,4342662003215888;-21,790215765861994;19,409772026734213;3,173924985503708
11:55:03.581;0;Mov;1;11821;9,84;0;0;0;-0,0023926511894857296;-0,29309976500747703;0,17466353939367352;14,801477095858639;33,661915952024906;-0,15259254737998595
11:55:03.581;0;Mov;1;11822;9,84;0;0;0;-0,15671865582178715;-0,28113650929288614;0,12202521275931195;22,217474898525957;33,81450849940489;-1,2207403790398876
11:55:03.581;0;Mov;1;11823;9,84;0;0;0;0,48211922317995237;-0,1890194432708594;0,0717795342875454;27,95495468001343;32,563249610889;-3,936887722403638
11:55:03.582;0;Mov;1;11824;9,84;0;0;0;0,2631916257209998;0,06460158234895245;0,3612903345019379;33,26517532883694;38,85006256294442;-11,474959562974945
11:55:03.582;0;Mov;1;11825;9,84;0;0;0,6113224027794733;0,3086520153183844;-0,07536851398224585;0,6113224027794733;33,78398998992889;40,62013611255226;-18,58577227088229
11:55:03.588;0;Wrist;1;58165;9,96;-1,3075838972899563;0,9247597144230476;0;0,9247597144230476;-1,3075838972899563;0,40435806103511157;-22,217474898525957;24,872585222937712;6,2868129520554215
11:55:03.589;0;Wrist;1;58166;9,96;-0,8290536090998566;0;0,9821833299317911;0,13638112408730582;-0,8290536090998566;0,9821833299317911;-21,607104709006013;34,211249122592854;10,620441297647023
11:55:03.589;0;Wrist;1;58167;9,96;-0,701046820638905;0;0,6412305420659505;0,31582994490455335;-0,701046820638905;0,6412305420659505;-10,315256202887051;47,60887478255562;12,451551866206854
11:55:03.589;0;Wrist;1;58168;9,96;-1,1532578747291482;1,8375561731315042;0;1,8375561731315042;-1,1532578747291482;0,0837427900021363;-3,204443494979705;55,29953917050691;13,48918118839076
11:55:03.589;0;Wrist;1;58169;9,96;0;0;0;0,1543260076591922;-0,058619954491657;0,09929502541142765;-13,428144169438765;80,38575395977661;15,655995361186559
11:55:03.640;0;Mov;1;11826;9,96;-0,7237769707327494;1,1855586174733725;1,3913266872920926;1,1855586174733725;-0,7237769707327494;1,3913266872920926;30,64058351390118;43,977172154911955;-21,423993652150028
11:55:03.641;0;Mov;1;11827;9,96;-0,8936552138012329;2,1067294267097996;2,325657053971984;2,1067294267097996;-0,8936552138012329;2,325657053971984;26,581621753593556;59,053315836054566;-20,142216254158146
11:55:03.641;0;Mov;1;11828;9,96;-0,598162785729545;2,2335397942289497;4,48861373485519;2,2335397942289497;-0,598162785729545;4,48861373485519;12,72621845149083;100,0091555528428;-15,594958342234566
11:55:03.641;0;Mov;1;11829;9,96;0,8649433762436293;4,6309763824884795;8,17568933683279;4,6309763824884795;0,8649433762436293;8,17568933683279;-6,561479537339396;176,1833552049318;-11,139255958738975
11:55:03.641;0;Mov;1;11830;9,96;2,832899000900296;5,934971255378887;18,14347323526719;5,934971255378887;2,832899000900296;18,14347323526719;-37,62932218390454;322,24494155705435;4,364146855067599
11:55:03.650;0;Wrist;1;58170;9,96;0;1,381756035035249;1,4535355693227943;1,381756035035249;0,07417218990094836;1,4535355693227943;-9,155552842799157;62,83761101107822;5,1576281014435255
11:55:03.650;0;Wrist;1;58171;9,96;0;2,086391939680166;1,4595171971800898;2,086391939680166;-0,49886777521973324;1,4595171971800898;0,12207403790398877;83,10190130314035;1,8005920590838342
11:55:03.650;0;Wrist;1;58172;9,96;-0,7943602032914212;4,39051484725486;4,3223245757927184;4,39051484725486;-0,7943602032914212;4,3223245757927184;14,496292001098666;110,17181920834986;0,3357036042359691
11:55:03.650;0;Wrist;1;58173;9,96;-0,6208929954298532;8,49750034333323;11,408161221655934;8,49750034333323;-0,6208929954298532;11,408161221655934;54,17035431989502;163,42661824396495;-7,72118289742729
11:55:03.650;0;Wrist;1;58174;9,96;0;15,439778397473068;24,02700315866573;15,439778397473068;-0,15911130398438214;24,02700315866573;116,94692831202124;316,2327951902829;-43,73302407910398
11:55:03.704;0;Mov;1;11831;9,95;-5,4073915829950865;4,727878849147007;31,426276818140202;4,727878849147007;-5,4073915829950865;31,426276818140202;-102,78633991515855;585,1924192022461;28,504287850581377
11:55:03.704;0;Mov;1;11832;9,95;-3,281521090197455;-1,5253151036103396;28,1531304361095;-1,5253151036103396;-3,281521090197455;28,1531304361095;-124,05774101992859;1000;69,24649800103762
11:55:03.704;0;Mov;1;11833;9,95;14,242255928220466;-26,23422383800775;-7,614612262337108;-26,23422383800775;14,242255928220466;-7,614612262337108;-88,41212195196387;1000;148,8692892239143
11:55:03.704;0;Mov;1;11834;9,95;-28,001195944090092;-30,001453444013794;-35,3574022644734;-30,001453444013794;-28,001195944090092;-35,3574022644734;85,66545609912411;1000;66,1946470534379
11:55:03.704;0;Mov;1;11835;9,95;-39,201197088534194;-20,37103259376812;12,992095706045717;-20,37103259376812;-39,201197088534194;12,992095706045717;18,18903164769433;777,1843623157445;52,2171697134312
11:55:03.709;0;Wrist;1;58175;9,96;4,865456289864803;20,444008072145756;25,13360431226539;20,444008072145756;4,865456289864803;25,13360431226539;188,20764793847468;603,9918210394604;-148,04528946806238
11:55:03.709;0;Wrist;1;58176;9,96;6,301046975615711;7,157616180150762;8,196027062288278;7,157616180150762;6,301046975615711;8,196027062288278;219,6417126987518;942,7167577135533;-283,42539750358594
11:55:03.709;0;Wrist;1;58177;9,96;20,300449003570666;-26,334715567491685;-14,20158143101291;-26,334715567491685;20,300449003570666;-14,20158143101291;233,4971160008545;1000;-372,99722281563766
11:55:03.709;0;Wrist;1;58178;9,96;36,95688879055147;-30,32565729239784;3,2946807668538467;-30,32565729239784;36,95688879055147;3,2946807668538467;17,91436506241035;1000;-175,63402203436385
11:55:03.709;0;Wrist;1;58179;9,96;35,69596316415906;-11,873531296731468;36,28575243385113;-11,873531296731468;35,69596316415906;36,28575243385113;-227,0577105014191;1000;287,57591479232156
11:55:03.731;0;Mov;1;11836;9,82;-14,171673291726432;-15,687417981505783;12,895193716238898;-15,687417981505783;-14,171673291726432;12,895193716238898;59,57213049714652;294,16791283913693;-55,4521317178869
11:55:03.731;0;Mov;1;11837;9,82;31,987353892635884;-18,32053018280587;-6,930314321573534;-18,32053018280587;31,987353892635884;-6,930314321573534;24,35377056184576;201,42216254158146;-35,584582049012724
